sub,NTrials,iTrial,correct_response,response,bars1,bars2,bars3,bars4,bars5,weights1,weights2,weights3,weights4,weights5,condition,RT
1,100,1,62.0,76.0,75.0,50.0,88.0,5.0,48.0,0.0,0.3333333333333333,0.3333333333333333,0.0,0.3333333333333333,1,6468.0
1,100,2,62.33333333333333,56.0,75.0,44.0,55.0,56.0,88.0,0.0,0.3333333333333333,0.3333333333333333,0.0,0.3333333333333333,1,4246.0
1,100,3,46.0,69.0,73.0,47.0,78.0,98.0,13.0,0.0,0.3333333333333333,0.3333333333333333,0.0,0.3333333333333333,1,4861.0
1,100,4,44.33333333333334,22.0,0.0,24.0,87.0,47.0,22.0,0.0,0.3333333333333333,0.3333333333333333,0.0,0.3333333333333333,1,2214.0
1,100,5,41.33333333333333,46.0,35.0,26.0,35.0,69.0,63.0,0.0,0.3333333333333333,0.3333333333333333,0.0,0.3333333333333333,1,4944.0
1,100,6,40.99999999999999,41.0,28.0,47.0,50.0,99.0,26.0,0.0,0.3333333333333333,0.3333333333333333,0.0,0.3333333333333333,1,2807.0
1,100,7,19.666666666666664,31.0,28.0,14.0,36.0,59.0,9.0,0.0,0.3333333333333333,0.3333333333333333,0.0,0.3333333333333333,1,2318.0
1,100,8,39.66666666666666,32.0,40.0,42.0,54.0,1.0,23.0,0.0,0.3333333333333333,0.3333333333333333,0.0,0.3333333333333333,1,3586.0
1,100,9,60.0,47.0,55.0,73.0,85.0,79.0,22.0,0.0,0.3333333333333333,0.3333333333333333,0.0,0.3333333333333333,1,3122.0
1,100,10,42.33333333333333,10.0,33.0,10.0,47.0,3.0,70.0,0.0,0.3333333333333333,0.3333333333333333,0.0,0.3333333333333333,1,2490.0
1,100,11,43.66666666666666,66.0,51.0,92.0,4.0,17.0,35.0,0.0,0.3333333333333333,0.3333333333333333,0.0,0.3333333333333333,1,2465.0
1,100,12,38.0,36.0,70.0,25.0,62.0,73.0,27.0,0.0,0.3333333333333333,0.3333333333333333,0.0,0.3333333333333333,1,2641.0
1,100,13,64.0,68.0,73.0,52.0,42.0,10.0,98.0,0.0,0.3333333333333333,0.3333333333333333,0.0,0.3333333333333333,1,16672.0
1,100,14,54.66666666666666,62.0,40.0,20.0,84.0,33.0,60.0,0.0,0.3333333333333333,0.3333333333333333,0.0,0.3333333333333333,1,4682.9999999999845
1,100,15,55.0,55.0,3.0,98.0,60.0,92.0,7.0,0.0,0.3333333333333333,0.3333333333333333,0.0,0.3333333333333333,1,4267.0
1,100,16,33.33333333333333,51.0,51.0,6.0,11.0,39.0,83.0,0.0,0.3333333333333333,0.3333333333333333,0.0,0.3333333333333333,1,2113.0
1,100,17,48.0,49.0,49.0,47.0,42.0,5.0,55.0,0.0,0.3333333333333333,0.3333333333333333,0.0,0.3333333333333333,1,1849.0
1,100,18,72.0,67.0,14.0,60.0,80.0,24.0,76.0,0.0,0.3333333333333333,0.3333333333333333,0.0,0.3333333333333333,1,1840.0
1,100,19,86.33333333333331,84.0,48.0,93.0,92.0,38.0,74.0,0.0,0.3333333333333333,0.3333333333333333,0.0,0.3333333333333333,1,1807.0
1,100,20,67.66666666666666,85.0,78.0,81.0,82.0,1.0,40.0,0.0,0.3333333333333333,0.3333333333333333,0.0,0.3333333333333333,1,1968.0000000000146
1,100,21,34.0,44.0,74.0,55.0,23.0,19.0,24.0,0.0,0.3333333333333333,0.3333333333333333,0.0,0.3333333333333333,1,3843.0
1,100,22,72.66666666666666,76.0,42.0,70.0,96.0,17.0,52.0,0.0,0.3333333333333333,0.3333333333333333,0.0,0.3333333333333333,1,1816.0
1,100,23,18.0,32.0,73.0,9.0,14.0,79.0,31.0,0.0,0.3333333333333333,0.3333333333333333,0.0,0.3333333333333333,1,2433.0
1,100,24,68.66666666666666,74.0,49.0,94.0,64.0,74.0,48.0,0.0,0.3333333333333333,0.3333333333333333,0.0,0.3333333333333333,1,2670.000000000029
1,100,25,56.33333333333333,37.0,61.0,60.0,21.0,80.0,88.0,0.0,0.3333333333333333,0.3333333333333333,0.0,0.3333333333333333,1,3016.0
1,100,26,43.66666666666666,26.0,74.0,13.0,88.0,7.0,30.0,0.0,0.3333333333333333,0.3333333333333333,0.0,0.3333333333333333,1,2246.0
1,100,27,50.33333333333333,64.0,52.0,65.0,2.0,41.0,84.0,0.0,0.3333333333333333,0.3333333333333333,0.0,0.3333333333333333,1,2360.0
1,100,28,50.66666666666667,69.0,23.0,7.0,90.0,13.0,55.0,0.0,0.3333333333333333,0.3333333333333333,0.0,0.3333333333333333,1,4250.0
1,100,29,79.66666666666666,87.0,81.0,80.0,87.0,85.0,72.0,0.0,0.3333333333333333,0.3333333333333333,0.0,0.3333333333333333,1,2675.999999999971
1,100,30,41.0,51.0,66.0,34.0,22.0,44.0,67.0,0.0,0.3333333333333333,0.3333333333333333,0.0,0.3333333333333333,1,2441.0
1,100,31,54.33333333333333,63.0,90.0,49.0,34.0,46.0,80.0,0.0,0.3333333333333333,0.3333333333333333,0.0,0.3333333333333333,1,15729.0
1,100,32,55.0,77.0,83.0,37.0,48.0,87.0,80.0,0.0,0.3333333333333333,0.3333333333333333,0.0,0.3333333333333333,1,2115.0
1,100,33,28.66666666666667,41.0,65.0,45.0,33.0,85.0,8.0,0.0,0.3333333333333333,0.3333333333333333,0.0,0.3333333333333333,1,3730.0
1,100,34,39.0,19.0,58.0,66.0,13.0,10.0,38.0,0.0,0.3333333333333333,0.3333333333333333,0.0,0.3333333333333333,1,1422.0
1,100,35,66.0,57.0,17.0,51.0,89.0,35.0,58.0,0.0,0.3333333333333333,0.3333333333333333,0.0,0.3333333333333333,1,2634.999999999971
1,100,36,51.0,54.0,38.0,70.0,29.0,94.0,54.0,0.0,0.3333333333333333,0.3333333333333333,0.0,0.3333333333333333,1,2013.0
1,100,37,40.99999999999999,55.0,63.0,97.0,23.0,50.0,3.0,0.0,0.3333333333333333,0.3333333333333333,0.0,0.3333333333333333,1,2247.999999999971
1,100,38,30.666666666666664,45.0,59.0,53.0,8.0,27.0,31.0,0.0,0.3333333333333333,0.3333333333333333,0.0,0.3333333333333333,1,2917.0
1,100,39,49.0,40.0,33.0,49.0,32.0,98.0,66.0,0.0,0.3333333333333333,0.3333333333333333,0.0,0.3333333333333333,1,2530.0
1,100,40,66.0,55.0,44.0,90.0,16.0,80.0,92.0,0.0,0.3333333333333333,0.3333333333333333,0.0,0.3333333333333333,1,1732.0
1,100,41,57.0,56.0,62.0,15.0,77.0,35.0,79.0,0.0,0.3333333333333333,0.3333333333333333,0.0,0.3333333333333333,1,5909.0
1,100,42,51.33333333333333,76.0,47.0,8.0,75.0,93.0,71.0,0.0,0.3333333333333333,0.3333333333333333,0.0,0.3333333333333333,1,5279.0
1,100,43,44.99999999999999,60.0,86.0,15.0,91.0,29.0,29.0,0.0,0.3333333333333333,0.3333333333333333,0.0,0.3333333333333333,1,1806.0
1,100,44,31.33333333333333,57.0,26.0,15.0,2.0,22.0,77.0,0.0,0.3333333333333333,0.3333333333333333,0.0,0.3333333333333333,1,2392.0
1,100,45,56.66666666666666,40.0,1.0,25.0,94.0,94.0,51.0,0.0,0.3333333333333333,0.3333333333333333,0.0,0.3333333333333333,1,3950.0
1,100,46,29.33333333333333,30.0,68.0,27.0,14.0,29.0,47.0,0.0,0.3333333333333333,0.3333333333333333,0.0,0.3333333333333333,1,5480.0
1,100,47,20.666666666666668,23.0,74.0,34.0,17.0,32.0,11.0,0.0,0.3333333333333333,0.3333333333333333,0.0,0.3333333333333333,1,3346.0
1,100,48,48.66666666666666,42.0,73.0,0.0,68.0,14.0,78.0,0.0,0.3333333333333333,0.3333333333333333,0.0,0.3333333333333333,1,2665.000000000058
1,100,49,51.66666666666666,55.0,53.0,76.0,8.0,97.0,71.0,0.0,0.3333333333333333,0.3333333333333333,0.0,0.3333333333333333,1,3518.0
1,100,50,61.33333333333333,64.0,11.0,72.0,72.0,63.0,40.0,0.0,0.3333333333333333,0.3333333333333333,0.0,0.3333333333333333,1,3543.0
1,100,51,18.33333333333333,18.0,69.0,49.0,0.0,14.0,6.0,0.0,0.3333333333333333,0.3333333333333333,0.0,0.3333333333333333,1,3139.0
1,100,52,65.33333333333333,50.0,79.0,81.0,17.0,92.0,98.0,0.0,0.3333333333333333,0.3333333333333333,0.0,0.3333333333333333,1,4627.0
1,100,53,55.33333333333333,63.0,3.0,67.0,6.0,86.0,93.0,0.0,0.3333333333333333,0.3333333333333333,0.0,0.3333333333333333,1,2332.0
1,100,54,36.333333333333336,31.0,9.0,87.0,6.0,68.0,16.0,0.0,0.3333333333333333,0.3333333333333333,0.0,0.3333333333333333,1,3187.000000000058
1,100,55,34.666666666666664,32.0,54.0,21.0,26.0,18.0,57.0,0.0,0.3333333333333333,0.3333333333333333,0.0,0.3333333333333333,1,1548.0
1,100,56,59.99999999999999,45.0,22.0,45.0,85.0,59.0,50.0,0.0,0.3333333333333333,0.3333333333333333,0.0,0.3333333333333333,1,2010.0
1,100,57,57.66666666666666,46.0,99.0,65.0,47.0,39.0,61.0,0.0,0.3333333333333333,0.3333333333333333,0.0,0.3333333333333333,1,1598.0
1,100,58,21.33333333333333,27.0,28.0,14.0,28.0,20.0,22.0,0.0,0.3333333333333333,0.3333333333333333,0.0,0.3333333333333333,1,3162.0
1,100,59,51.0,51.0,96.0,58.0,28.0,54.0,67.0,0.0,0.3333333333333333,0.3333333333333333,0.0,0.3333333333333333,1,2521.0
1,100,60,62.0,58.0,83.0,75.0,56.0,27.0,55.0,0.0,0.3333333333333333,0.3333333333333333,0.0,0.3333333333333333,1,2538.0
1,100,61,43.33333333333333,42.0,57.0,32.0,32.0,77.0,66.0,0.0,0.3333333333333333,0.3333333333333333,0.0,0.3333333333333333,1,1840.0
1,100,62,47.33333333333333,52.0,90.0,83.0,39.0,88.0,20.0,0.0,0.3333333333333333,0.3333333333333333,0.0,0.3333333333333333,1,1889.0
1,100,63,49.66666666666666,48.0,49.0,33.0,73.0,61.0,43.0,0.0,0.3333333333333333,0.3333333333333333,0.0,0.3333333333333333,1,1944.0
1,100,64,35.66666666666666,38.0,27.0,20.0,59.0,95.0,28.0,0.0,0.3333333333333333,0.3333333333333333,0.0,0.3333333333333333,1,2829.0
1,100,65,69.33333333333333,56.0,95.0,30.0,96.0,12.0,82.0,0.0,0.3333333333333333,0.3333333333333333,0.0,0.3333333333333333,1,2308.0
1,100,66,73.66666666666666,58.0,17.0,67.0,100.0,25.0,54.0,0.0,0.3333333333333333,0.3333333333333333,0.0,0.3333333333333333,1,2814.0
1,100,67,28.666666666666664,30.0,58.0,73.0,0.0,85.0,13.0,0.0,0.3333333333333333,0.3333333333333333,0.0,0.3333333333333333,1,3275.0
1,100,68,61.0,58.0,50.0,23.0,67.0,1.0,93.0,0.0,0.3333333333333333,0.3333333333333333,0.0,0.3333333333333333,1,2415.0
1,100,69,42.33333333333333,55.0,67.0,22.0,14.0,5.0,91.0,0.0,0.3333333333333333,0.3333333333333333,0.0,0.3333333333333333,1,2164.0
1,100,70,57.99999999999999,55.0,56.0,95.0,47.0,5.0,32.0,0.0,0.3333333333333333,0.3333333333333333,0.0,0.3333333333333333,1,2172.0
1,100,71,55.33333333333333,64.0,22.0,46.0,55.0,31.0,65.0,0.0,0.3333333333333333,0.3333333333333333,0.0,0.3333333333333333,1,2424.0
1,100,72,55.33333333333333,58.0,99.0,31.0,53.0,3.0,82.0,0.0,0.3333333333333333,0.3333333333333333,0.0,0.3333333333333333,1,2870.0
1,100,73,62.66666666666666,58.0,0.0,80.0,67.0,56.0,41.0,0.0,0.3333333333333333,0.3333333333333333,0.0,0.3333333333333333,1,4058.0
1,100,74,63.33333333333333,51.0,72.0,40.0,79.0,85.0,71.0,0.0,0.3333333333333333,0.3333333333333333,0.0,0.3333333333333333,1,4240.0
1,100,75,50.66666666666666,47.0,42.0,23.0,81.0,13.0,48.0,0.0,0.3333333333333333,0.3333333333333333,0.0,0.3333333333333333,1,3235.0
1,100,76,26.0,29.0,61.0,19.0,32.0,86.0,27.0,0.0,0.3333333333333333,0.3333333333333333,0.0,0.3333333333333333,1,2211.0
1,100,77,47.33333333333333,47.0,97.0,19.0,66.0,73.0,57.0,0.0,0.3333333333333333,0.3333333333333333,0.0,0.3333333333333333,1,2255.0
1,100,78,47.66666666666666,47.0,72.0,30.0,86.0,41.0,27.0,0.0,0.3333333333333333,0.3333333333333333,0.0,0.3333333333333333,1,2003.0
1,100,79,80.33333333333333,65.0,31.0,79.0,75.0,60.0,87.0,0.0,0.3333333333333333,0.3333333333333333,0.0,0.3333333333333333,1,3471.0
1,100,80,63.66666666666666,63.0,66.0,94.0,34.0,65.0,63.0,0.0,0.3333333333333333,0.3333333333333333,0.0,0.3333333333333333,1,1964.0
1,100,81,52.66666666666666,54.0,53.0,80.0,16.0,41.0,62.0,0.0,0.3333333333333333,0.3333333333333333,0.0,0.3333333333333333,1,2471.0
1,100,82,61.0,51.0,42.0,83.0,66.0,52.0,34.0,0.0,0.3333333333333333,0.3333333333333333,0.0,0.3333333333333333,1,2150.0
1,100,83,8.666666666666666,12.0,6.0,6.0,5.0,64.0,15.0,0.0,0.3333333333333333,0.3333333333333333,0.0,0.3333333333333333,1,2581.0
1,100,84,86.33333333333331,84.0,22.0,89.0,72.0,97.0,98.0,0.0,0.3333333333333333,0.3333333333333333,0.0,0.3333333333333333,1,3147.0
1,100,85,50.99999999999999,50.0,73.0,44.0,92.0,83.0,17.0,0.0,0.3333333333333333,0.3333333333333333,0.0,0.3333333333333333,1,3651.0
1,100,86,66.33333333333333,66.0,92.0,29.0,74.0,1.0,96.0,0.0,0.3333333333333333,0.3333333333333333,0.0,0.3333333333333333,1,4074.0
1,100,87,61.33333333333333,58.0,9.0,93.0,41.0,13.0,50.0,0.0,0.3333333333333333,0.3333333333333333,0.0,0.3333333333333333,1,4353.000000000058
1,100,88,28.666666666666664,31.0,31.0,46.0,3.0,32.0,37.0,0.0,0.3333333333333333,0.3333333333333333,0.0,0.3333333333333333,1,4587.000000000058
1,100,89,27.0,34.0,90.0,10.0,31.0,1.0,40.0,0.0,0.3333333333333333,0.3333333333333333,0.0,0.3333333333333333,1,2117.0
1,100,90,50.66666666666666,33.0,48.0,26.0,84.0,43.0,42.0,0.0,0.3333333333333333,0.3333333333333333,0.0,0.3333333333333333,1,2263.000000000058
1,100,91,62.33333333333333,74.0,79.0,67.0,20.0,17.0,100.0,0.0,0.3333333333333333,0.3333333333333333,0.0,0.3333333333333333,1,3231.0
1,100,92,50.0,59.0,53.0,25.0,56.0,23.0,69.0,0.0,0.3333333333333333,0.3333333333333333,0.0,0.3333333333333333,1,3487.0
1,100,93,65.0,65.0,33.0,43.0,66.0,86.0,86.0,0.0,0.3333333333333333,0.3333333333333333,0.0,0.3333333333333333,1,5564.000000000116
1,100,94,22.0,35.0,93.0,4.0,12.0,54.0,50.0,0.0,0.3333333333333333,0.3333333333333333,0.0,0.3333333333333333,1,2422.0000000001164
1,100,95,48.66666666666666,67.0,47.0,27.0,89.0,13.0,30.0,0.0,0.3333333333333333,0.3333333333333333,0.0,0.3333333333333333,1,1932.0
1,100,96,73.0,66.0,65.0,89.0,83.0,51.0,47.0,0.0,0.3333333333333333,0.3333333333333333,0.0,0.3333333333333333,1,1585.0
1,100,97,49.66666666666666,68.0,29.0,10.0,98.0,27.0,41.0,0.0,0.3333333333333333,0.3333333333333333,0.0,0.3333333333333333,1,3065.0
1,100,98,42.66666666666666,52.0,56.0,26.0,24.0,50.0,78.0,0.0,0.3333333333333333,0.3333333333333333,0.0,0.3333333333333333,1,2380.999999999884
1,100,99,58.0,45.0,7.0,95.0,27.0,50.0,52.0,0.0,0.3333333333333333,0.3333333333333333,0.0,0.3333333333333333,1,3323.0
1,100,100,66.33333333333333,53.0,42.0,92.0,93.0,64.0,14.0,0.0,0.3333333333333333,0.3333333333333333,0.0,0.3333333333333333,1,1989.0000000001166
2,100,1,48.33333333333333,54.0,32.0,17.0,58.0,27.0,55.0,0.3333333333333333,0.0,0.3333333333333333,0.0,0.3333333333333333,1,20298.024999909103
2,100,2,13.666666666666664,50.0,24.0,71.0,14.0,44.0,3.0,0.3333333333333333,0.0,0.3333333333333333,0.0,0.3333333333333333,1,7667.4950000597155
2,100,3,58.33333333333333,50.0,93.0,81.0,26.0,47.0,56.0,0.3333333333333333,0.0,0.3333333333333333,0.0,0.3333333333333333,1,1576.9899999722836
2,100,4,32.666666666666664,50.0,19.0,98.0,69.0,97.0,10.0,0.3333333333333333,0.0,0.3333333333333333,0.0,0.3333333333333333,1,3730.969999916852
2,100,5,63.33333333333333,50.0,100.0,79.0,16.0,96.0,74.0,0.3333333333333333,0.0,0.3333333333333333,0.0,0.3333333333333333,1,3047.265000059269
2,100,6,45.0,46.0,8.0,57.0,76.0,73.0,51.0,0.3333333333333333,0.0,0.3333333333333333,0.0,0.3333333333333333,1,7271.000000066124
2,100,7,72.33333333333333,60.0,75.0,25.0,87.0,28.0,55.0,0.3333333333333333,0.0,0.3333333333333333,0.0,0.3333333333333333,1,4542.870000004768
2,100,8,90.0,90.0,87.0,48.0,99.0,97.0,84.0,0.3333333333333333,0.0,0.3333333333333333,0.0,0.3333333333333333,1,1694.855000008829
2,100,9,72.0,79.0,96.0,41.0,53.0,34.0,67.0,0.3333333333333333,0.0,0.3333333333333333,0.0,0.3333333333333333,1,3255.820000078529
2,100,10,60.99999999999999,58.0,95.0,95.0,32.0,13.0,56.0,0.3333333333333333,0.0,0.3333333333333333,0.0,0.3333333333333333,1,4206.154999905266
2,100,11,96.33333333333331,97.0,96.0,51.0,95.0,71.0,98.0,0.3333333333333333,0.0,0.3333333333333333,0.0,0.3333333333333333,1,2405.8150000637397
2,100,12,66.66666666666666,69.0,52.0,10.0,93.0,41.0,55.0,0.3333333333333333,0.0,0.3333333333333333,0.0,0.3333333333333333,1,5014.640000066721
2,100,13,34.33333333333333,31.0,69.0,24.0,1.0,82.0,33.0,0.3333333333333333,0.0,0.3333333333333333,0.0,0.3333333333333333,1,3184.815000044182
2,100,14,45.66666666666666,47.0,26.0,5.0,18.0,82.0,93.0,0.3333333333333333,0.0,0.3333333333333333,0.0,0.3333333333333333,1,2490.529999951832
2,100,15,46.33333333333333,36.0,20.0,18.0,94.0,51.0,25.0,0.3333333333333333,0.0,0.3333333333333333,0.0,0.3333333333333333,1,2300.6300000706688
2,100,16,69.66666666666666,75.0,81.0,17.0,50.0,75.0,78.0,0.3333333333333333,0.0,0.3333333333333333,0.0,0.3333333333333333,1,2600.4050000337884
2,100,17,71.0,85.0,51.0,10.0,69.0,54.0,93.0,0.3333333333333333,0.0,0.3333333333333333,0.0,0.3333333333333333,1,2200.985000003129
2,100,18,68.0,79.0,47.0,30.0,66.0,73.0,91.0,0.3333333333333333,0.0,0.3333333333333333,0.0,0.3333333333333333,1,4159.8500000545755
2,100,19,66.0,57.0,43.0,26.0,59.0,36.0,96.0,0.3333333333333333,0.0,0.3333333333333333,0.0,0.3333333333333333,1,5093.690000008792
2,100,20,73.66666666666666,88.0,71.0,99.0,84.0,73.0,66.0,0.3333333333333333,0.0,0.3333333333333333,0.0,0.3333333333333333,1,3650.3500000108033
2,100,21,33.666666666666664,35.0,65.0,41.0,35.0,43.0,1.0,0.3333333333333333,0.0,0.3333333333333333,0.0,0.3333333333333333,1,4609.699999913573
2,100,22,46.66666666666666,83.0,32.0,10.0,99.0,57.0,9.0,0.3333333333333333,0.0,0.3333333333333333,0.0,0.3333333333333333,1,2639.9549999041487
2,100,23,44.33333333333333,51.0,24.0,91.0,67.0,41.0,42.0,0.3333333333333333,0.0,0.3333333333333333,0.0,0.3333333333333333,1,4883.535000029951
2,100,24,65.33333333333333,67.0,76.0,59.0,97.0,92.0,23.0,0.3333333333333333,0.0,0.3333333333333333,0.0,0.3333333333333333,1,3022.4949999246746
2,100,25,62.33333333333333,60.0,49.0,21.0,73.0,25.0,65.0,0.3333333333333333,0.0,0.3333333333333333,0.0,0.3333333333333333,1,5795.864999992774
2,100,26,80.33333333333333,68.0,67.0,97.0,76.0,57.0,98.0,0.3333333333333333,0.0,0.3333333333333333,0.0,0.3333333333333333,1,6348.050000029615
2,100,27,77.33333333333333,78.0,72.0,78.0,74.0,89.0,86.0,0.3333333333333333,0.0,0.3333333333333333,0.0,0.3333333333333333,1,1259.444999974221
2,100,28,51.66666666666666,66.0,17.0,64.0,44.0,98.0,94.0,0.3333333333333333,0.0,0.3333333333333333,0.0,0.3333333333333333,1,2758.5800000233576
2,100,29,31.666666666666664,31.0,6.0,4.0,74.0,79.0,15.0,0.3333333333333333,0.0,0.3333333333333333,0.0,0.3333333333333333,1,2212.7249999903147
2,100,30,55.0,42.0,79.0,66.0,9.0,30.0,77.0,0.3333333333333333,0.0,0.3333333333333333,0.0,0.3333333333333333,1,7295.634999987668
2,100,31,58.99999999999999,43.0,97.0,75.0,34.0,25.0,46.0,0.3333333333333333,0.0,0.3333333333333333,0.0,0.3333333333333333,1,2139.3450000323355
2,100,32,25.666666666666664,27.0,36.0,40.0,8.0,15.0,33.0,0.3333333333333333,0.0,0.3333333333333333,0.0,0.3333333333333333,1,2231.3350000185887
2,100,33,15.666666666666664,20.0,5.0,100.0,32.0,37.0,10.0,0.3333333333333333,0.0,0.3333333333333333,0.0,0.3333333333333333,1,2860.0849999347697
2,100,34,35.66666666666667,24.0,11.0,36.0,72.0,55.0,24.0,0.3333333333333333,0.0,0.3333333333333333,0.0,0.3333333333333333,1,2713.574999943376
2,100,35,49.33333333333332,47.0,25.0,46.0,97.0,93.0,26.0,0.3333333333333333,0.0,0.3333333333333333,0.0,0.3333333333333333,1,2091.024999972433
2,100,36,52.0,56.0,48.0,38.0,43.0,17.0,65.0,0.3333333333333333,0.0,0.3333333333333333,0.0,0.3333333333333333,1,2627.235000021756
2,100,37,50.33333333333333,46.0,11.0,52.0,84.0,27.0,56.0,0.3333333333333333,0.0,0.3333333333333333,0.0,0.3333333333333333,1,4058.929999941029
2,100,38,55.0,36.0,37.0,52.0,50.0,6.0,78.0,0.3333333333333333,0.0,0.3333333333333333,0.0,0.3333333333333333,1,13865.504999994298
2,100,39,52.66666666666666,56.0,85.0,90.0,65.0,58.0,8.0,0.3333333333333333,0.0,0.3333333333333333,0.0,0.3333333333333333,1,2406.3799999421467
2,100,40,31.666666666666664,25.0,41.0,90.0,41.0,4.0,13.0,0.3333333333333333,0.0,0.3333333333333333,0.0,0.3333333333333333,1,4761.2750000553215
2,100,41,57.66666666666666,51.0,9.0,95.0,97.0,7.0,67.0,0.3333333333333333,0.0,0.3333333333333333,0.0,0.3333333333333333,1,3515.26500005275
2,100,42,45.0,62.0,40.0,47.0,74.0,71.0,21.0,0.3333333333333333,0.0,0.3333333333333333,0.0,0.3333333333333333,1,3771.8449999811132
2,100,43,26.666666666666664,26.0,70.0,78.0,9.0,28.0,1.0,0.3333333333333333,0.0,0.3333333333333333,0.0,0.3333333333333333,1,2246.510000084527
2,100,44,32.666666666666664,31.0,3.0,37.0,5.0,98.0,90.0,0.3333333333333333,0.0,0.3333333333333333,0.0,0.3333333333333333,1,2712.385000078939
2,100,45,65.33333333333333,41.0,97.0,22.0,90.0,24.0,9.0,0.3333333333333333,0.0,0.3333333333333333,0.0,0.3333333333333333,1,8149.315000046045
2,100,46,76.0,83.0,82.0,80.0,56.0,83.0,90.0,0.3333333333333333,0.0,0.3333333333333333,0.0,0.3333333333333333,1,8438.47499997355
2,100,47,32.666666666666664,25.0,25.0,65.0,21.0,66.0,52.0,0.3333333333333333,0.0,0.3333333333333333,0.0,0.3333333333333333,1,9351.699999999257
2,100,48,58.66666666666666,49.0,77.0,10.0,26.0,74.0,73.0,0.3333333333333333,0.0,0.3333333333333333,0.0,0.3333333333333333,1,2745.615000021644
2,100,49,76.33333333333333,80.0,97.0,2.0,88.0,56.0,44.0,0.3333333333333333,0.0,0.3333333333333333,0.0,0.3333333333333333,1,5210.119999945165
2,100,50,76.0,65.0,46.0,43.0,98.0,16.0,84.0,0.3333333333333333,0.0,0.3333333333333333,0.0,0.3333333333333333,1,2523.714999901131
2,100,51,57.33333333333333,59.0,53.0,21.0,88.0,68.0,31.0,0.3333333333333333,0.0,0.3333333333333333,0.0,0.3333333333333333,1,2258.7499999208376
2,100,52,47.0,53.0,37.0,54.0,36.0,69.0,68.0,0.3333333333333333,0.0,0.3333333333333333,0.0,0.3333333333333333,1,4880.710000055842
2,100,53,29.0,13.0,0.0,68.0,40.0,97.0,47.0,0.3333333333333333,0.0,0.3333333333333333,0.0,0.3333333333333333,1,7153.085000114515
2,100,54,43.66666666666666,39.0,14.0,6.0,61.0,22.0,56.0,0.3333333333333333,0.0,0.3333333333333333,0.0,0.3333333333333333,1,5127.040000050329
2,100,55,53.66666666666666,53.0,73.0,71.0,23.0,2.0,65.0,0.3333333333333333,0.0,0.3333333333333333,0.0,0.3333333333333333,1,5299.055000068621
2,100,56,65.66666666666666,78.0,8.0,44.0,91.0,93.0,98.0,0.3333333333333333,0.0,0.3333333333333333,0.0,0.3333333333333333,1,3607.4200000148267
2,100,57,65.66666666666666,59.0,38.0,80.0,100.0,39.0,59.0,0.3333333333333333,0.0,0.3333333333333333,0.0,0.3333333333333333,1,2424.2599999997765
2,100,58,50.66666666666666,45.0,57.0,22.0,30.0,24.0,65.0,0.3333333333333333,0.0,0.3333333333333333,0.0,0.3333333333333333,1,2823.78500001505
2,100,59,50.33333333333333,42.0,90.0,72.0,43.0,35.0,18.0,0.3333333333333333,0.0,0.3333333333333333,0.0,0.3333333333333333,1,6016.444999957457
2,100,60,21.0,22.0,13.0,64.0,34.0,68.0,16.0,0.3333333333333333,0.0,0.3333333333333333,0.0,0.3333333333333333,1,3207.7549999812622
2,100,61,87.66666666666666,89.0,90.0,99.0,78.0,33.0,95.0,0.3333333333333333,0.0,0.3333333333333333,0.0,0.3333333333333333,1,4170.750000048429
2,100,62,35.0,21.0,61.0,33.0,16.0,57.0,28.0,0.3333333333333333,0.0,0.3333333333333333,0.0,0.3333333333333333,1,2776.2099999235943
2,100,63,68.0,75.0,76.0,49.0,92.0,24.0,36.0,0.3333333333333333,0.0,0.3333333333333333,0.0,0.3333333333333333,1,10819.64000000153
2,100,64,26.0,28.0,10.0,58.0,30.0,72.0,38.0,0.3333333333333333,0.0,0.3333333333333333,0.0,0.3333333333333333,1,9123.045000014828
2,100,65,34.0,20.0,4.0,53.0,76.0,8.0,22.0,0.3333333333333333,0.0,0.3333333333333333,0.0,0.3333333333333333,1,3328.534999978729
2,100,66,38.66666666666666,26.0,78.0,15.0,26.0,48.0,12.0,0.3333333333333333,0.0,0.3333333333333333,0.0,0.3333333333333333,1,2178.0450000660494
2,100,67,64.66666666666666,53.0,50.0,97.0,74.0,33.0,70.0,0.3333333333333333,0.0,0.3333333333333333,0.0,0.3333333333333333,1,1779.8099999781698
2,100,68,64.66666666666666,65.0,82.0,29.0,63.0,31.0,49.0,0.3333333333333333,0.0,0.3333333333333333,0.0,0.3333333333333333,1,3550.619999994524
2,100,69,52.33333333333333,50.0,53.0,97.0,67.0,19.0,37.0,0.3333333333333333,0.0,0.3333333333333333,0.0,0.3333333333333333,1,3297.630000044592
2,100,70,35.0,33.0,28.0,69.0,33.0,33.0,44.0,0.3333333333333333,0.0,0.3333333333333333,0.0,0.3333333333333333,1,2855.444999993779
2,100,71,65.0,62.0,21.0,23.0,83.0,51.0,91.0,0.3333333333333333,0.0,0.3333333333333333,0.0,0.3333333333333333,1,7669.289999990724
2,100,72,43.33333333333333,45.0,2.0,23.0,34.0,10.0,94.0,0.3333333333333333,0.0,0.3333333333333333,0.0,0.3333333333333333,1,5453.4750001039365
2,100,73,73.33333333333333,71.0,70.0,37.0,98.0,54.0,52.0,0.3333333333333333,0.0,0.3333333333333333,0.0,0.3333333333333333,1,3049.200000008568
2,100,74,26.666666666666664,23.0,3.0,17.0,56.0,33.0,21.0,0.3333333333333333,0.0,0.3333333333333333,0.0,0.3333333333333333,1,3855.8399999747053
2,100,75,41.0,43.0,11.0,24.0,30.0,82.0,82.0,0.3333333333333333,0.0,0.3333333333333333,0.0,0.3333333333333333,1,2791.310000000521
2,100,76,23.666666666666664,27.0,35.0,76.0,33.0,77.0,3.0,0.3333333333333333,0.0,0.3333333333333333,0.0,0.3333333333333333,1,4449.074999894947
2,100,77,26.0,22.0,47.0,49.0,7.0,37.0,24.0,0.3333333333333333,0.0,0.3333333333333333,0.0,0.3333333333333333,1,3129.244999960065
2,100,78,37.333333333333336,33.0,13.0,13.0,9.0,2.0,90.0,0.3333333333333333,0.0,0.3333333333333333,0.0,0.3333333333333333,1,3671.7199999839063
2,100,79,37.66666666666666,35.0,26.0,18.0,51.0,44.0,36.0,0.3333333333333333,0.0,0.3333333333333333,0.0,0.3333333333333333,1,3436.6000000154604
2,100,80,44.33333333333333,37.0,29.0,44.0,100.0,11.0,4.0,0.3333333333333333,0.0,0.3333333333333333,0.0,0.3333333333333333,1,3030.839999904856
2,100,81,23.666666666666664,19.0,1.0,22.0,54.0,52.0,16.0,0.3333333333333333,0.0,0.3333333333333333,0.0,0.3333333333333333,1,4068.48000001628
2,100,82,91.33333333333331,94.0,100.0,88.0,86.0,96.0,88.0,0.3333333333333333,0.0,0.3333333333333333,0.0,0.3333333333333333,1,3645.865000085905
2,100,83,22.666666666666664,18.0,10.0,28.0,3.0,27.0,55.0,0.3333333333333333,0.0,0.3333333333333333,0.0,0.3333333333333333,1,2684.9349999101833
2,100,84,61.66666666666666,61.0,35.0,0.0,92.0,39.0,58.0,0.3333333333333333,0.0,0.3333333333333333,0.0,0.3333333333333333,1,6182.0300000254065
2,100,85,42.33333333333333,37.0,35.0,59.0,72.0,71.0,20.0,0.3333333333333333,0.0,0.3333333333333333,0.0,0.3333333333333333,1,3830.244999960996
2,100,86,77.66666666666666,78.0,90.0,53.0,54.0,37.0,89.0,0.3333333333333333,0.0,0.3333333333333333,0.0,0.3333333333333333,1,2535.174999968149
2,100,87,44.66666666666666,45.0,14.0,3.0,21.0,84.0,99.0,0.3333333333333333,0.0,0.3333333333333333,0.0,0.3333333333333333,1,2738.684999989345
2,100,88,62.66666666666666,68.0,93.0,73.0,24.0,78.0,71.0,0.3333333333333333,0.0,0.3333333333333333,0.0,0.3333333333333333,1,11806.119999964722
2,100,89,61.33333333333333,61.0,29.0,13.0,93.0,78.0,62.0,0.3333333333333333,0.0,0.3333333333333333,0.0,0.3333333333333333,1,4545.330000109971
2,100,90,61.66666666666666,66.0,83.0,69.0,85.0,90.0,17.0,0.3333333333333333,0.0,0.3333333333333333,0.0,0.3333333333333333,1,6184.580000001006
2,100,91,54.0,53.0,33.0,50.0,66.0,20.0,63.0,0.3333333333333333,0.0,0.3333333333333333,0.0,0.3333333333333333,1,3055.3300000028685
2,100,92,32.666666666666664,31.0,14.0,51.0,45.0,15.0,39.0,0.3333333333333333,0.0,0.3333333333333333,0.0,0.3333333333333333,1,2222.234999993816
2,100,93,24.33333333333333,21.0,14.0,30.0,24.0,3.0,35.0,0.3333333333333333,0.0,0.3333333333333333,0.0,0.3333333333333333,1,2732.2799999965355
2,100,94,67.0,67.0,9.0,38.0,100.0,88.0,92.0,0.3333333333333333,0.0,0.3333333333333333,0.0,0.3333333333333333,1,2161.070000031032
2,100,95,29.0,32.0,20.0,81.0,47.0,56.0,20.0,0.3333333333333333,0.0,0.3333333333333333,0.0,0.3333333333333333,1,4613.11499995645
2,100,96,44.33333333333333,42.0,38.0,58.0,7.0,69.0,88.0,0.3333333333333333,0.0,0.3333333333333333,0.0,0.3333333333333333,1,2954.155000043101
2,100,97,47.66666666666666,49.0,63.0,10.0,4.0,58.0,76.0,0.3333333333333333,0.0,0.3333333333333333,0.0,0.3333333333333333,1,9624.635000014678
2,100,98,18.33333333333333,20.0,36.0,39.0,13.0,54.0,6.0,0.3333333333333333,0.0,0.3333333333333333,0.0,0.3333333333333333,1,2688.12499998603
2,100,99,40.66666666666666,35.0,10.0,90.0,61.0,40.0,51.0,0.3333333333333333,0.0,0.3333333333333333,0.0,0.3333333333333333,1,2652.070000069216
2,100,100,69.0,72.0,33.0,31.0,89.0,94.0,85.0,0.3333333333333333,0.0,0.3333333333333333,0.0,0.3333333333333333,1,2959.8499999847268
3,100,1,54.33333333333333,68.0,50.0,52.0,76.0,75.0,35.0,0.0,0.3333333333333333,0.3333333333333333,0.0,0.3333333333333333,1,2558.0
3,100,2,48.33333333333333,74.0,63.0,47.0,27.0,91.0,71.0,0.0,0.3333333333333333,0.3333333333333333,0.0,0.3333333333333333,1,4174.0
3,100,3,43.66666666666666,76.0,90.0,44.0,0.0,38.0,87.0,0.0,0.3333333333333333,0.3333333333333333,0.0,0.3333333333333333,1,3055.0
3,100,4,39.33333333333333,42.0,77.0,59.0,54.0,87.0,5.0,0.0,0.3333333333333333,0.3333333333333333,0.0,0.3333333333333333,1,1376.0
3,100,5,24.33333333333333,42.0,77.0,9.0,56.0,93.0,8.0,0.0,0.3333333333333333,0.3333333333333333,0.0,0.3333333333333333,1,1081.0
3,100,6,66.66666666666666,93.0,70.0,73.0,32.0,73.0,95.0,0.0,0.3333333333333333,0.3333333333333333,0.0,0.3333333333333333,1,1753.0
3,100,7,77.66666666666666,100.0,45.0,81.0,53.0,8.0,99.0,0.0,0.3333333333333333,0.3333333333333333,0.0,0.3333333333333333,1,2528.0
3,100,8,61.33333333333333,65.0,74.0,87.0,15.0,96.0,82.0,0.0,0.3333333333333333,0.3333333333333333,0.0,0.3333333333333333,1,2736.0
3,100,9,77.33333333333333,76.0,34.0,89.0,54.0,30.0,89.0,0.0,0.3333333333333333,0.3333333333333333,0.0,0.3333333333333333,1,2416.0
3,100,10,53.33333333333333,56.0,22.0,74.0,8.0,28.0,78.0,0.0,0.3333333333333333,0.3333333333333333,0.0,0.3333333333333333,1,2150.0
3,100,11,50.99999999999999,29.0,69.0,95.0,35.0,32.0,23.0,0.0,0.3333333333333333,0.3333333333333333,0.0,0.3333333333333333,1,1769.0
3,100,12,71.0,84.0,42.0,86.0,54.0,44.0,73.0,0.0,0.3333333333333333,0.3333333333333333,0.0,0.3333333333333333,1,2487.0
3,100,13,57.0,61.0,84.0,18.0,84.0,7.0,69.0,0.0,0.3333333333333333,0.3333333333333333,0.0,0.3333333333333333,1,2063.0
3,100,14,46.33333333333333,63.0,43.0,34.0,49.0,54.0,56.0,0.0,0.3333333333333333,0.3333333333333333,0.0,0.3333333333333333,1,3114.0
3,100,15,47.0,57.0,74.0,8.0,94.0,58.0,39.0,0.0,0.3333333333333333,0.3333333333333333,0.0,0.3333333333333333,1,1959.0
3,100,16,65.0,46.0,71.0,99.0,35.0,47.0,61.0,0.0,0.3333333333333333,0.3333333333333333,0.0,0.3333333333333333,1,1927.0
3,100,17,30.0,61.0,29.0,5.0,8.0,75.0,77.0,0.0,0.3333333333333333,0.3333333333333333,0.0,0.3333333333333333,1,1708.0
3,100,18,44.33333333333333,54.0,68.0,46.0,16.0,62.0,71.0,0.0,0.3333333333333333,0.3333333333333333,0.0,0.3333333333333333,1,2528.0
3,100,19,79.0,81.0,48.0,66.0,71.0,55.0,100.0,0.0,0.3333333333333333,0.3333333333333333,0.0,0.3333333333333333,1,2908.0
3,100,20,19.666666666666664,40.0,11.0,1.0,25.0,70.0,33.0,0.0,0.3333333333333333,0.3333333333333333,0.0,0.3333333333333333,1,2528.0
3,100,21,65.66666666666667,57.0,85.0,95.0,88.0,18.0,14.0,0.0,0.3333333333333333,0.3333333333333333,0.0,0.3333333333333333,1,2871.0
3,100,22,36.99999999999999,29.0,42.0,62.0,44.0,44.0,5.0,0.0,0.3333333333333333,0.3333333333333333,0.0,0.3333333333333333,1,2258.0
3,100,23,53.33333333333333,52.0,55.0,60.0,62.0,84.0,38.0,0.0,0.3333333333333333,0.3333333333333333,0.0,0.3333333333333333,1,2686.0
3,100,24,34.33333333333333,39.0,30.0,88.0,1.0,13.0,14.0,0.0,0.3333333333333333,0.3333333333333333,0.0,0.3333333333333333,1,13144.0
3,100,25,57.33333333333333,62.0,22.0,57.0,90.0,12.0,25.0,0.0,0.3333333333333333,0.3333333333333333,0.0,0.3333333333333333,1,1694.0
3,100,26,43.66666666666666,53.0,79.0,38.0,16.0,67.0,77.0,0.0,0.3333333333333333,0.3333333333333333,0.0,0.3333333333333333,1,3384.0
3,100,27,62.0,43.0,65.0,94.0,82.0,57.0,10.0,0.0,0.3333333333333333,0.3333333333333333,0.0,0.3333333333333333,1,2835.0
3,100,28,54.99999999999999,60.0,37.0,91.0,45.0,42.0,29.0,0.0,0.3333333333333333,0.3333333333333333,0.0,0.3333333333333333,1,1302.0
3,100,29,40.66666666666666,40.0,85.0,9.0,95.0,22.0,18.0,0.0,0.3333333333333333,0.3333333333333333,0.0,0.3333333333333333,1,2123.0
3,100,30,86.66666666666666,87.0,85.0,79.0,82.0,34.0,99.0,0.0,0.3333333333333333,0.3333333333333333,0.0,0.3333333333333333,1,1718.0
3,100,31,50.66666666666666,54.0,7.0,31.0,56.0,50.0,65.0,0.0,0.3333333333333333,0.3333333333333333,0.0,0.3333333333333333,1,4365.0
3,100,32,20.666666666666664,40.0,45.0,21.0,19.0,31.0,22.0,0.0,0.3333333333333333,0.3333333333333333,0.0,0.3333333333333333,1,1596.0
3,100,33,61.0,57.0,79.0,99.0,47.0,21.0,37.0,0.0,0.3333333333333333,0.3333333333333333,0.0,0.3333333333333333,1,2919.0
3,100,34,83.66666666666666,88.0,23.0,79.0,85.0,35.0,87.0,0.0,0.3333333333333333,0.3333333333333333,0.0,0.3333333333333333,1,1449.0
3,100,35,68.0,72.0,63.0,33.0,84.0,4.0,87.0,0.0,0.3333333333333333,0.3333333333333333,0.0,0.3333333333333333,1,1717.0
3,100,36,47.0,51.0,9.0,27.0,22.0,4.0,92.0,0.0,0.3333333333333333,0.3333333333333333,0.0,0.3333333333333333,1,2185.0
3,100,37,54.33333333333333,27.0,87.0,63.0,64.0,15.0,36.0,0.0,0.3333333333333333,0.3333333333333333,0.0,0.3333333333333333,1,1405.0
3,100,38,36.99999999999999,65.0,14.0,4.0,10.0,21.0,97.0,0.0,0.3333333333333333,0.3333333333333333,0.0,0.3333333333333333,1,2569.0
3,100,39,59.33333333333333,59.0,73.0,16.0,100.0,70.0,62.0,0.0,0.3333333333333333,0.3333333333333333,0.0,0.3333333333333333,1,2284.0
3,100,40,70.0,71.0,13.0,77.0,79.0,23.0,54.0,0.0,0.3333333333333333,0.3333333333333333,0.0,0.3333333333333333,1,1348.0
3,100,41,39.0,47.0,25.0,31.0,43.0,17.0,43.0,0.0,0.3333333333333333,0.3333333333333333,0.0,0.3333333333333333,1,2075.0
3,100,42,42.33333333333333,44.0,33.0,92.0,33.0,23.0,2.0,0.0,0.3333333333333333,0.3333333333333333,0.0,0.3333333333333333,1,2883.0
3,100,43,43.0,57.0,89.0,36.0,37.0,10.0,56.0,0.0,0.3333333333333333,0.3333333333333333,0.0,0.3333333333333333,1,4881.0
3,100,44,34.666666666666664,45.0,37.0,6.0,38.0,67.0,60.0,0.0,0.3333333333333333,0.3333333333333333,0.0,0.3333333333333333,1,2037.0
3,100,45,50.33333333333333,46.0,64.0,52.0,12.0,57.0,87.0,0.0,0.3333333333333333,0.3333333333333333,0.0,0.3333333333333333,1,7580.0
3,100,46,65.33333333333333,66.0,87.0,52.0,60.0,73.0,84.0,0.0,0.3333333333333333,0.3333333333333333,0.0,0.3333333333333333,1,2468.0
3,100,47,58.33333333333333,65.0,28.0,95.0,65.0,3.0,15.0,0.0,0.3333333333333333,0.3333333333333333,0.0,0.3333333333333333,1,2334.0
3,100,48,41.0,60.0,55.0,19.0,23.0,81.0,81.0,0.0,0.3333333333333333,0.3333333333333333,0.0,0.3333333333333333,1,3468.0
3,100,49,42.0,48.0,72.0,58.0,0.0,79.0,68.0,0.0,0.3333333333333333,0.3333333333333333,0.0,0.3333333333333333,1,3879.0
3,100,50,85.0,75.0,94.0,91.0,81.0,43.0,83.0,0.0,0.3333333333333333,0.3333333333333333,0.0,0.3333333333333333,1,3169.0
3,100,51,50.0,49.0,82.0,54.0,96.0,10.0,0.0,0.0,0.3333333333333333,0.3333333333333333,0.0,0.3333333333333333,1,3470.0
3,100,52,59.0,59.0,86.0,71.0,96.0,93.0,10.0,0.0,0.3333333333333333,0.3333333333333333,0.0,0.3333333333333333,1,2660.0
3,100,53,60.66666666666666,60.0,6.0,42.0,56.0,39.0,84.0,0.0,0.3333333333333333,0.3333333333333333,0.0,0.3333333333333333,1,2358.0
3,100,54,55.0,55.0,3.0,44.0,93.0,69.0,28.0,0.0,0.3333333333333333,0.3333333333333333,0.0,0.3333333333333333,1,1787.0
3,100,55,61.0,63.0,39.0,88.0,14.0,62.0,81.0,0.0,0.3333333333333333,0.3333333333333333,0.0,0.3333333333333333,1,4220.0
3,100,56,38.66666666666666,45.0,36.0,34.0,45.0,2.0,37.0,0.0,0.3333333333333333,0.3333333333333333,0.0,0.3333333333333333,1,3067.0
3,100,57,48.0,46.0,41.0,31.0,29.0,81.0,84.0,0.0,0.3333333333333333,0.3333333333333333,0.0,0.3333333333333333,1,2489.0
3,100,58,66.66666666666666,58.0,29.0,49.0,57.0,4.0,94.0,0.0,0.3333333333333333,0.3333333333333333,0.0,0.3333333333333333,1,2832.0
3,100,59,61.33333333333333,48.0,13.0,66.0,89.0,43.0,29.0,0.0,0.3333333333333333,0.3333333333333333,0.0,0.3333333333333333,1,4331.0
3,100,60,61.33333333333333,48.0,41.0,69.0,39.0,27.0,76.0,0.0,0.3333333333333333,0.3333333333333333,0.0,0.3333333333333333,1,8866.0
3,100,61,62.33333333333333,69.0,52.0,64.0,75.0,95.0,48.0,0.0,0.3333333333333333,0.3333333333333333,0.0,0.3333333333333333,1,3456.0
3,100,62,60.66666666666666,61.0,23.0,96.0,24.0,32.0,62.0,0.0,0.3333333333333333,0.3333333333333333,0.0,0.3333333333333333,1,5089.0
3,100,63,53.33333333333333,56.0,60.0,38.0,50.0,52.0,72.0,0.0,0.3333333333333333,0.3333333333333333,0.0,0.3333333333333333,1,6174.0
3,100,64,28.33333333333333,41.0,45.0,45.0,0.0,6.0,40.0,0.0,0.3333333333333333,0.3333333333333333,0.0,0.3333333333333333,1,3084.0
3,100,65,68.33333333333333,55.0,67.0,85.0,56.0,27.0,64.0,0.0,0.3333333333333333,0.3333333333333333,0.0,0.3333333333333333,1,2857.0
3,100,66,37.66666666666666,48.0,68.0,66.0,36.0,37.0,11.0,0.0,0.3333333333333333,0.3333333333333333,0.0,0.3333333333333333,1,6180.0
3,100,67,83.33333333333331,57.0,12.0,99.0,98.0,64.0,53.0,0.0,0.3333333333333333,0.3333333333333333,0.0,0.3333333333333333,1,2207.0
3,100,68,35.0,31.0,59.0,62.0,30.0,28.0,13.0,0.0,0.3333333333333333,0.3333333333333333,0.0,0.3333333333333333,1,6451.0
3,100,69,33.666666666666664,59.0,57.0,73.0,1.0,60.0,27.0,0.0,0.3333333333333333,0.3333333333333333,0.0,0.3333333333333333,1,3800.0
3,100,70,64.33333333333333,61.0,47.0,85.0,72.0,61.0,36.0,0.0,0.3333333333333333,0.3333333333333333,0.0,0.3333333333333333,1,3152.0
3,100,71,49.33333333333333,53.0,98.0,50.0,24.0,22.0,74.0,0.0,0.3333333333333333,0.3333333333333333,0.0,0.3333333333333333,1,4128.0
3,100,72,37.66666666666666,47.0,40.0,2.0,61.0,78.0,50.0,0.0,0.3333333333333333,0.3333333333333333,0.0,0.3333333333333333,1,3197.0
3,100,73,39.0,35.0,25.0,19.0,56.0,11.0,42.0,0.0,0.3333333333333333,0.3333333333333333,0.0,0.3333333333333333,1,9064.0
3,100,74,45.0,41.0,38.0,35.0,33.0,37.0,67.0,0.0,0.3333333333333333,0.3333333333333333,0.0,0.3333333333333333,1,4120.0
3,100,75,24.666666666666664,40.0,70.0,40.0,28.0,89.0,6.0,0.0,0.3333333333333333,0.3333333333333333,0.0,0.3333333333333333,1,3295.0
3,100,76,60.33333333333333,30.0,23.0,85.0,62.0,11.0,34.0,0.0,0.3333333333333333,0.3333333333333333,0.0,0.3333333333333333,1,2462.0
3,100,77,42.333333333333336,34.0,0.0,30.0,96.0,70.0,1.0,0.0,0.3333333333333333,0.3333333333333333,0.0,0.3333333333333333,1,3714.0
3,100,78,37.66666666666666,34.0,78.0,0.0,44.0,34.0,69.0,0.0,0.3333333333333333,0.3333333333333333,0.0,0.3333333333333333,1,1822.0
3,100,79,46.0,59.0,97.0,15.0,53.0,81.0,70.0,0.0,0.3333333333333333,0.3333333333333333,0.0,0.3333333333333333,1,2669.0
3,100,80,19.0,31.0,87.0,7.0,27.0,79.0,23.0,0.0,0.3333333333333333,0.3333333333333333,0.0,0.3333333333333333,1,1836.0
3,100,81,71.66666666666666,71.0,82.0,64.0,71.0,94.0,80.0,0.0,0.3333333333333333,0.3333333333333333,0.0,0.3333333333333333,1,1700.0
3,100,82,25.666666666666664,42.0,32.0,15.0,8.0,86.0,54.0,0.0,0.3333333333333333,0.3333333333333333,0.0,0.3333333333333333,1,2473.0
3,100,83,40.0,36.0,74.0,19.0,53.0,7.0,48.0,0.0,0.3333333333333333,0.3333333333333333,0.0,0.3333333333333333,1,3222.0
3,100,84,46.66666666666666,39.0,45.0,30.0,24.0,85.0,86.0,0.0,0.3333333333333333,0.3333333333333333,0.0,0.3333333333333333,1,1655.0
3,100,85,44.33333333333333,46.0,83.0,91.0,13.0,33.0,29.0,0.0,0.3333333333333333,0.3333333333333333,0.0,0.3333333333333333,1,3106.0
3,100,86,8.0,19.0,23.0,13.0,5.0,20.0,6.0,0.0,0.3333333333333333,0.3333333333333333,0.0,0.3333333333333333,1,1900.0
3,100,87,30.666666666666664,37.0,51.0,0.0,56.0,36.0,36.0,0.0,0.3333333333333333,0.3333333333333333,0.0,0.3333333333333333,1,1959.0
3,100,88,29.666666666666664,21.0,96.0,43.0,30.0,9.0,16.0,0.0,0.3333333333333333,0.3333333333333333,0.0,0.3333333333333333,1,1221.0
3,100,89,67.33333333333333,46.0,60.0,36.0,92.0,46.0,74.0,0.0,0.3333333333333333,0.3333333333333333,0.0,0.3333333333333333,1,962.0
3,100,90,70.99999999999999,36.0,19.0,97.0,91.0,13.0,25.0,0.0,0.3333333333333333,0.3333333333333333,0.0,0.3333333333333333,1,1774.0
3,100,91,70.66666666666666,39.0,90.0,60.0,76.0,31.0,76.0,0.0,0.3333333333333333,0.3333333333333333,0.0,0.3333333333333333,1,1563.0
3,100,92,30.0,35.0,53.0,39.0,21.0,27.0,30.0,0.0,0.3333333333333333,0.3333333333333333,0.0,0.3333333333333333,1,1161.0
3,100,93,64.0,70.0,61.0,66.0,28.0,83.0,98.0,0.0,0.3333333333333333,0.3333333333333333,0.0,0.3333333333333333,1,2213.0
3,100,94,47.0,52.0,52.0,9.0,64.0,86.0,68.0,0.0,0.3333333333333333,0.3333333333333333,0.0,0.3333333333333333,1,1539.0
3,100,95,70.33333333333333,67.0,62.0,90.0,46.0,21.0,75.0,0.0,0.3333333333333333,0.3333333333333333,0.0,0.3333333333333333,1,1540.0
3,100,96,31.0,27.0,37.0,71.0,14.0,29.0,8.0,0.0,0.3333333333333333,0.3333333333333333,0.0,0.3333333333333333,1,1402.0
3,100,97,39.0,31.0,10.0,65.0,48.0,47.0,4.0,0.0,0.3333333333333333,0.3333333333333333,0.0,0.3333333333333333,1,1476.0
3,100,98,56.0,45.0,72.0,62.0,99.0,94.0,7.0,0.0,0.3333333333333333,0.3333333333333333,0.0,0.3333333333333333,1,1539.0
3,100,99,77.0,76.0,80.0,77.0,82.0,98.0,72.0,0.0,0.3333333333333333,0.3333333333333333,0.0,0.3333333333333333,1,3966.0
3,100,100,83.33333333333333,60.0,29.0,83.0,81.0,34.0,86.0,0.0,0.3333333333333333,0.3333333333333333,0.0,0.3333333333333333,1,1206.0
4,100,1,52.66666666666666,62.0,59.0,42.0,68.0,57.0,87.0,0.3333333333333333,0.3333333333333333,0.0,0.3333333333333333,0.0,1,7517.0
4,100,2,66.0,47.0,89.0,72.0,93.0,37.0,90.0,0.3333333333333333,0.3333333333333333,0.0,0.3333333333333333,0.0,1,6570.0
4,100,3,66.0,47.0,89.0,72.0,93.0,37.0,90.0,0.3333333333333333,0.3333333333333333,0.0,0.3333333333333333,0.0,1,6570.0
4,100,4,58.0,54.0,54.0,75.0,99.0,45.0,75.0,0.3333333333333333,0.3333333333333333,0.0,0.3333333333333333,0.0,1,2157.0
4,100,5,40.66666666666666,17.0,7.0,100.0,49.0,15.0,94.0,0.3333333333333333,0.3333333333333333,0.0,0.3333333333333333,0.0,1,2853.0
4,100,6,41.33333333333333,43.0,36.0,57.0,69.0,31.0,67.0,0.3333333333333333,0.3333333333333333,0.0,0.3333333333333333,0.0,1,3740.0
4,100,7,56.99999999999999,75.0,98.0,2.0,70.0,71.0,33.0,0.3333333333333333,0.3333333333333333,0.0,0.3333333333333333,0.0,1,3504.0
4,100,8,56.99999999999999,75.0,98.0,2.0,70.0,71.0,33.0,0.3333333333333333,0.3333333333333333,0.0,0.3333333333333333,0.0,1,3504.0
4,100,9,35.0,53.0,75.0,6.0,82.0,24.0,27.0,0.3333333333333333,0.3333333333333333,0.0,0.3333333333333333,0.0,1,3618.0
4,100,10,35.0,53.0,75.0,6.0,82.0,24.0,27.0,0.3333333333333333,0.3333333333333333,0.0,0.3333333333333333,0.0,1,3618.0
4,100,11,33.33333333333333,34.0,67.0,5.0,48.0,28.0,58.0,0.3333333333333333,0.3333333333333333,0.0,0.3333333333333333,0.0,1,3800.0
4,100,12,75.66666666666666,42.0,85.0,85.0,21.0,57.0,64.0,0.3333333333333333,0.3333333333333333,0.0,0.3333333333333333,0.0,1,4176.0
4,100,13,75.66666666666666,42.0,85.0,85.0,21.0,57.0,64.0,0.3333333333333333,0.3333333333333333,0.0,0.3333333333333333,0.0,1,4176.0
4,100,14,49.66666666666666,39.0,28.0,58.0,3.0,63.0,43.0,0.3333333333333333,0.3333333333333333,0.0,0.3333333333333333,0.0,1,2919.0
4,100,15,49.66666666666666,39.0,28.0,58.0,3.0,63.0,43.0,0.3333333333333333,0.3333333333333333,0.0,0.3333333333333333,0.0,1,2919.0
4,100,16,58.66666666666666,54.0,72.0,93.0,50.0,11.0,31.0,0.3333333333333333,0.3333333333333333,0.0,0.3333333333333333,0.0,1,7509.0
4,100,17,58.66666666666666,54.0,72.0,93.0,50.0,11.0,31.0,0.3333333333333333,0.3333333333333333,0.0,0.3333333333333333,0.0,1,7509.0
4,100,18,34.33333333333333,65.0,29.0,62.0,57.0,12.0,49.0,0.3333333333333333,0.3333333333333333,0.0,0.3333333333333333,0.0,1,6630.0
4,100,19,34.33333333333333,65.0,29.0,62.0,57.0,12.0,49.0,0.3333333333333333,0.3333333333333333,0.0,0.3333333333333333,0.0,1,6630.0
4,100,20,34.33333333333333,65.0,29.0,62.0,57.0,12.0,49.0,0.3333333333333333,0.3333333333333333,0.0,0.3333333333333333,0.0,1,6630.0
4,100,21,29.0,48.0,22.0,9.0,74.0,56.0,12.0,0.3333333333333333,0.3333333333333333,0.0,0.3333333333333333,0.0,1,2383.0
4,100,22,54.66666666666666,70.0,19.0,55.0,91.0,90.0,78.0,0.3333333333333333,0.3333333333333333,0.0,0.3333333333333333,0.0,1,2804.0
4,100,23,54.66666666666666,70.0,19.0,55.0,91.0,90.0,78.0,0.3333333333333333,0.3333333333333333,0.0,0.3333333333333333,0.0,1,2804.0
4,100,24,70.0,55.0,93.0,42.0,36.0,75.0,21.0,0.3333333333333333,0.3333333333333333,0.0,0.3333333333333333,0.0,1,2087.0
4,100,25,70.0,55.0,93.0,42.0,36.0,75.0,21.0,0.3333333333333333,0.3333333333333333,0.0,0.3333333333333333,0.0,1,2087.0
4,100,26,70.0,55.0,93.0,42.0,36.0,75.0,21.0,0.3333333333333333,0.3333333333333333,0.0,0.3333333333333333,0.0,1,2087.0
4,100,27,60.33333333333333,59.0,4.0,83.0,20.0,94.0,45.0,0.3333333333333333,0.3333333333333333,0.0,0.3333333333333333,0.0,1,4115.0
4,100,28,36.99999999999999,44.0,64.0,39.0,82.0,8.0,86.0,0.3333333333333333,0.3333333333333333,0.0,0.3333333333333333,0.0,1,2928.0
4,100,29,51.99999999999999,54.0,43.0,63.0,6.0,50.0,89.0,0.3333333333333333,0.3333333333333333,0.0,0.3333333333333333,0.0,1,2434.0
4,100,30,62.66666666666666,52.0,88.0,50.0,6.0,50.0,56.0,0.3333333333333333,0.3333333333333333,0.0,0.3333333333333333,0.0,1,3475.0
4,100,31,82.66666666666666,84.0,60.0,91.0,86.0,97.0,39.0,0.3333333333333333,0.3333333333333333,0.0,0.3333333333333333,0.0,1,1776.0
4,100,32,50.66666666666666,80.0,38.0,78.0,78.0,36.0,100.0,0.3333333333333333,0.3333333333333333,0.0,0.3333333333333333,0.0,1,2574.0
4,100,33,44.0,52.0,40.0,48.0,13.0,44.0,69.0,0.3333333333333333,0.3333333333333333,0.0,0.3333333333333333,0.0,1,3466.0
4,100,34,80.0,70.0,86.0,84.0,7.0,70.0,75.0,0.3333333333333333,0.3333333333333333,0.0,0.3333333333333333,0.0,1,3618.0
4,100,35,80.0,70.0,86.0,84.0,7.0,70.0,75.0,0.3333333333333333,0.3333333333333333,0.0,0.3333333333333333,0.0,1,3618.0
4,100,36,66.66666666666666,64.0,86.0,98.0,31.0,16.0,68.0,0.3333333333333333,0.3333333333333333,0.0,0.3333333333333333,0.0,1,8240.0
4,100,37,42.66666666666666,78.0,74.0,19.0,92.0,35.0,86.0,0.3333333333333333,0.3333333333333333,0.0,0.3333333333333333,0.0,1,3715.0
4,100,38,42.66666666666666,78.0,74.0,19.0,92.0,35.0,86.0,0.3333333333333333,0.3333333333333333,0.0,0.3333333333333333,0.0,1,3715.0
4,100,39,65.33333333333333,62.0,25.0,81.0,74.0,90.0,58.0,0.3333333333333333,0.3333333333333333,0.0,0.3333333333333333,0.0,1,3018.0
4,100,40,60.33333333333333,53.0,1.0,94.0,71.0,86.0,5.0,0.3333333333333333,0.3333333333333333,0.0,0.3333333333333333,0.0,1,2199.0
4,100,41,56.33333333333333,61.0,91.0,45.0,59.0,33.0,75.0,0.3333333333333333,0.3333333333333333,0.0,0.3333333333333333,0.0,1,1687.0
4,100,42,33.0,45.0,89.0,9.0,42.0,1.0,57.0,0.3333333333333333,0.3333333333333333,0.0,0.3333333333333333,0.0,1,2734.0
4,100,43,33.0,45.0,89.0,9.0,42.0,1.0,57.0,0.3333333333333333,0.3333333333333333,0.0,0.3333333333333333,0.0,1,2734.0
4,100,44,35.33333333333333,23.0,68.0,23.0,10.0,15.0,91.0,0.3333333333333333,0.3333333333333333,0.0,0.3333333333333333,0.0,1,1983.0
4,100,45,46.33333333333333,43.0,60.0,15.0,32.0,64.0,92.0,0.3333333333333333,0.3333333333333333,0.0,0.3333333333333333,0.0,1,2833.0
4,100,46,55.66666666666666,62.0,84.0,25.0,88.0,58.0,48.0,0.3333333333333333,0.3333333333333333,0.0,0.3333333333333333,0.0,1,2963.0
4,100,47,51.66666666666666,40.0,85.0,49.0,75.0,21.0,97.0,0.3333333333333333,0.3333333333333333,0.0,0.3333333333333333,0.0,1,3354.0
4,100,48,26.666666666666664,56.0,0.0,71.0,95.0,9.0,92.0,0.3333333333333333,0.3333333333333333,0.0,0.3333333333333333,0.0,1,4693.0
4,100,49,26.666666666666664,56.0,0.0,71.0,95.0,9.0,92.0,0.3333333333333333,0.3333333333333333,0.0,0.3333333333333333,0.0,1,4693.0
4,100,50,76.66666666666666,65.0,88.0,44.0,42.0,98.0,32.0,0.3333333333333333,0.3333333333333333,0.0,0.3333333333333333,0.0,1,2430.0
4,100,51,40.66666666666666,36.0,1.0,87.0,6.0,34.0,82.0,0.3333333333333333,0.3333333333333333,0.0,0.3333333333333333,0.0,1,2531.0
4,100,52,23.666666666666664,43.0,8.0,31.0,94.0,32.0,62.0,0.3333333333333333,0.3333333333333333,0.0,0.3333333333333333,0.0,1,2462.0
4,100,53,51.66666666666666,52.0,75.0,66.0,2.0,14.0,94.0,0.3333333333333333,0.3333333333333333,0.0,0.3333333333333333,0.0,1,2012.0
4,100,54,62.0,61.0,56.0,85.0,72.0,45.0,80.0,0.3333333333333333,0.3333333333333333,0.0,0.3333333333333333,0.0,1,2581.0
4,100,55,48.33333333333333,47.0,18.0,54.0,98.0,73.0,36.0,0.3333333333333333,0.3333333333333333,0.0,0.3333333333333333,0.0,1,5332.0
4,100,56,60.33333333333333,52.0,70.0,16.0,51.0,95.0,51.0,0.3333333333333333,0.3333333333333333,0.0,0.3333333333333333,0.0,1,9259.0
4,100,57,42.33333333333333,45.0,20.0,87.0,0.0,20.0,11.0,0.3333333333333333,0.3333333333333333,0.0,0.3333333333333333,0.0,1,3847.0
4,100,58,57.33333333333333,40.0,81.0,14.0,16.0,77.0,65.0,0.3333333333333333,0.3333333333333333,0.0,0.3333333333333333,0.0,1,4703.0
4,100,59,46.33333333333333,54.0,44.0,29.0,87.0,66.0,35.0,0.3333333333333333,0.3333333333333333,0.0,0.3333333333333333,0.0,1,1898.0
4,100,60,56.0,46.0,34.0,73.0,52.0,61.0,82.0,0.3333333333333333,0.3333333333333333,0.0,0.3333333333333333,0.0,1,2392.0
4,100,61,51.0,61.0,8.0,81.0,43.0,64.0,87.0,0.3333333333333333,0.3333333333333333,0.0,0.3333333333333333,0.0,1,4036.0
4,100,62,44.0,44.0,42.0,15.0,86.0,75.0,13.0,0.3333333333333333,0.3333333333333333,0.0,0.3333333333333333,0.0,1,3578.0
4,100,63,54.0,59.0,79.0,35.0,20.0,48.0,3.0,0.3333333333333333,0.3333333333333333,0.0,0.3333333333333333,0.0,1,6397.0
4,100,64,51.66666666666666,44.0,52.0,46.0,1.0,57.0,31.0,0.3333333333333333,0.3333333333333333,0.0,0.3333333333333333,0.0,1,3798.0
4,100,65,42.66666666666666,65.0,16.0,13.0,24.0,99.0,63.0,0.3333333333333333,0.3333333333333333,0.0,0.3333333333333333,0.0,1,2006.0
4,100,66,42.66666666666666,65.0,16.0,13.0,24.0,99.0,63.0,0.3333333333333333,0.3333333333333333,0.0,0.3333333333333333,0.0,1,2006.0
4,100,67,62.0,44.0,59.0,48.0,42.0,79.0,37.0,0.3333333333333333,0.3333333333333333,0.0,0.3333333333333333,0.0,1,6963.0
4,100,68,69.66666666666666,79.0,86.0,42.0,60.0,81.0,91.0,0.3333333333333333,0.3333333333333333,0.0,0.3333333333333333,0.0,1,5329.0
4,100,69,48.0,47.0,23.0,46.0,84.0,75.0,78.0,0.3333333333333333,0.3333333333333333,0.0,0.3333333333333333,0.0,1,2391.0
4,100,70,54.99999999999999,31.0,47.0,56.0,17.0,62.0,58.0,0.3333333333333333,0.3333333333333333,0.0,0.3333333333333333,0.0,1,9679.0
4,100,71,42.33333333333333,61.0,54.0,71.0,87.0,2.0,91.0,0.3333333333333333,0.3333333333333333,0.0,0.3333333333333333,0.0,1,1988.0
4,100,72,72.0,57.0,76.0,90.0,73.0,50.0,46.0,0.3333333333333333,0.3333333333333333,0.0,0.3333333333333333,0.0,1,1561.0
4,100,73,49.66666666666666,49.0,67.0,45.0,67.0,37.0,75.0,0.3333333333333333,0.3333333333333333,0.0,0.3333333333333333,0.0,1,3379.0
4,100,74,48.66666666666666,57.0,84.0,41.0,69.0,21.0,25.0,0.3333333333333333,0.3333333333333333,0.0,0.3333333333333333,0.0,1,9966.0
4,100,75,57.66666666666666,43.0,16.0,62.0,4.0,95.0,65.0,0.3333333333333333,0.3333333333333333,0.0,0.3333333333333333,0.0,1,3554.0
4,100,76,57.66666666666666,43.0,16.0,62.0,4.0,95.0,65.0,0.3333333333333333,0.3333333333333333,0.0,0.3333333333333333,0.0,1,3554.0
4,100,77,61.66666666666666,72.0,55.0,56.0,81.0,74.0,14.0,0.3333333333333333,0.3333333333333333,0.0,0.3333333333333333,0.0,1,1724.0
4,100,78,33.666666666666664,50.0,42.0,0.0,91.0,59.0,69.0,0.3333333333333333,0.3333333333333333,0.0,0.3333333333333333,0.0,1,2971.0
4,100,79,77.66666666666666,67.0,75.0,60.0,1.0,98.0,33.0,0.3333333333333333,0.3333333333333333,0.0,0.3333333333333333,0.0,1,2201.0
4,100,80,77.66666666666666,67.0,75.0,60.0,1.0,98.0,33.0,0.3333333333333333,0.3333333333333333,0.0,0.3333333333333333,0.0,1,2201.0
4,100,81,64.0,84.0,58.0,55.0,85.0,79.0,61.0,0.3333333333333333,0.3333333333333333,0.0,0.3333333333333333,0.0,1,1482.0
4,100,82,38.333333333333336,44.0,63.0,51.0,66.0,1.0,5.0,0.3333333333333333,0.3333333333333333,0.0,0.3333333333333333,0.0,1,2477.0
4,100,83,50.0,33.0,87.0,45.0,46.0,18.0,39.0,0.3333333333333333,0.3333333333333333,0.0,0.3333333333333333,0.0,1,4533.0
4,100,84,37.66666666666666,35.0,23.0,89.0,65.0,1.0,0.0,0.3333333333333333,0.3333333333333333,0.0,0.3333333333333333,0.0,1,3835.0
4,100,85,71.66666666666666,53.0,83.0,92.0,22.0,40.0,62.0,0.3333333333333333,0.3333333333333333,0.0,0.3333333333333333,0.0,1,1362.0
4,100,86,71.66666666666666,53.0,83.0,92.0,22.0,40.0,62.0,0.3333333333333333,0.3333333333333333,0.0,0.3333333333333333,0.0,1,1362.0
4,100,87,42.66666666666666,54.0,12.0,85.0,7.0,31.0,98.0,0.3333333333333333,0.3333333333333333,0.0,0.3333333333333333,0.0,1,3244.0
4,100,88,53.99999999999999,52.0,65.0,41.0,29.0,56.0,75.0,0.3333333333333333,0.3333333333333333,0.0,0.3333333333333333,0.0,1,6876.0
4,100,89,55.33333333333333,62.0,76.0,27.0,67.0,63.0,24.0,0.3333333333333333,0.3333333333333333,0.0,0.3333333333333333,0.0,1,5241.0
4,100,90,43.66666666666666,61.0,60.0,53.0,68.0,18.0,61.0,0.3333333333333333,0.3333333333333333,0.0,0.3333333333333333,0.0,1,5006.0
4,100,91,43.66666666666666,61.0,60.0,53.0,68.0,18.0,61.0,0.3333333333333333,0.3333333333333333,0.0,0.3333333333333333,0.0,1,5006.0
4,100,92,43.66666666666666,61.0,60.0,53.0,68.0,18.0,61.0,0.3333333333333333,0.3333333333333333,0.0,0.3333333333333333,0.0,1,5006.0
4,100,93,15.666666666666664,32.0,23.0,15.0,45.0,9.0,51.0,0.3333333333333333,0.3333333333333333,0.0,0.3333333333333333,0.0,1,2422.0
4,100,94,63.33333333333333,78.0,77.0,16.0,10.0,97.0,84.0,0.3333333333333333,0.3333333333333333,0.0,0.3333333333333333,0.0,1,1982.0
4,100,95,38.0,40.0,36.0,30.0,17.0,48.0,17.0,0.3333333333333333,0.3333333333333333,0.0,0.3333333333333333,0.0,1,2259.0
4,100,96,52.66666666666666,61.0,76.0,64.0,36.0,18.0,85.0,0.3333333333333333,0.3333333333333333,0.0,0.3333333333333333,0.0,1,2871.0
4,100,97,19.0,55.0,26.0,2.0,94.0,29.0,65.0,0.3333333333333333,0.3333333333333333,0.0,0.3333333333333333,0.0,1,1933.0
4,100,98,73.66666666666666,67.0,95.0,27.0,99.0,99.0,58.0,0.3333333333333333,0.3333333333333333,0.0,0.3333333333333333,0.0,1,3018.0
4,100,99,73.66666666666666,67.0,95.0,27.0,99.0,99.0,58.0,0.3333333333333333,0.3333333333333333,0.0,0.3333333333333333,0.0,1,3018.0
4,100,100,66.66666666666666,50.0,98.0,68.0,65.0,34.0,7.0,0.3333333333333333,0.3333333333333333,0.0,0.3333333333333333,0.0,1,2463.0
5,100,1,20.33333333333333,51.0,25.0,56.0,15.0,21.0,58.0,0.3333333333333333,0.0,0.3333333333333333,0.3333333333333333,0.0,1,6343.99999998277
5,100,2,63.33333333333333,70.0,52.0,85.0,57.0,81.0,68.0,0.3333333333333333,0.0,0.3333333333333333,0.3333333333333333,0.0,1,1944.1000000224449
5,100,3,56.0,77.0,89.0,54.0,48.0,31.0,91.0,0.3333333333333333,0.0,0.3333333333333333,0.3333333333333333,0.0,1,2222.200000018347
5,100,4,36.66666666666666,41.0,56.0,61.0,45.0,9.0,74.0,0.3333333333333333,0.0,0.3333333333333333,0.3333333333333333,0.0,1,2670.799999963492
5,100,5,59.99999999999999,66.0,39.0,77.0,94.0,47.0,46.0,0.3333333333333333,0.0,0.3333333333333333,0.3333333333333333,0.0,1,2745.8999999798834
5,100,6,50.33333333333333,39.0,30.0,36.0,40.0,81.0,76.0,0.3333333333333333,0.0,0.3333333333333333,0.3333333333333333,0.0,1,3147.500000020955
5,100,7,55.66666666666666,42.0,82.0,70.0,40.0,45.0,42.0,0.3333333333333333,0.0,0.3333333333333333,0.3333333333333333,0.0,1,1978.2000000122935
5,100,8,74.0,77.0,36.0,87.0,92.0,94.0,89.0,0.3333333333333333,0.0,0.3333333333333333,0.3333333333333333,0.0,1,2669.200000003912
5,100,9,61.66666666666666,73.0,8.0,44.0,92.0,85.0,93.0,0.3333333333333333,0.0,0.3333333333333333,0.3333333333333333,0.0,1,3404.600000008941
5,100,10,72.0,60.0,58.0,48.0,80.0,78.0,69.0,0.3333333333333333,0.0,0.3333333333333333,0.3333333333333333,0.0,1,2492.299999983516
5,100,11,17.0,41.0,18.0,51.0,29.0,4.0,49.0,0.3333333333333333,0.0,0.3333333333333333,0.3333333333333333,0.0,1,2558.599999989383
5,100,12,37.0,18.0,24.0,29.0,71.0,16.0,15.0,0.3333333333333333,0.0,0.3333333333333333,0.3333333333333333,0.0,1,2458.4000000031665
5,100,13,48.99999999999999,34.0,29.0,74.0,59.0,59.0,18.0,0.3333333333333333,0.0,0.3333333333333333,0.3333333333333333,0.0,1,4289.899999974296
5,100,14,45.66666666666666,40.0,32.0,90.0,23.0,82.0,22.0,0.3333333333333333,0.0,0.3333333333333333,0.3333333333333333,0.0,1,1673.9999999990687
5,100,15,33.0,39.0,6.0,47.0,26.0,67.0,67.0,0.3333333333333333,0.0,0.3333333333333333,0.3333333333333333,0.0,1,2079.200000036508
5,100,16,49.0,35.0,99.0,19.0,39.0,9.0,76.0,0.3333333333333333,0.0,0.3333333333333333,0.3333333333333333,0.0,1,2240.4000000096853
5,100,17,13.999999999999998,18.0,35.0,65.0,5.0,2.0,70.0,0.3333333333333333,0.0,0.3333333333333333,0.3333333333333333,0.0,1,3314.39999997383
5,100,18,50.33333333333333,43.0,57.0,4.0,92.0,2.0,3.0,0.3333333333333333,0.0,0.3333333333333333,0.3333333333333333,0.0,1,2672.200000029989
5,100,19,60.0,74.0,7.0,51.0,96.0,77.0,25.0,0.3333333333333333,0.0,0.3333333333333333,0.3333333333333333,0.0,1,2760.7999999891035
5,100,20,66.66666666666666,49.0,93.0,7.0,62.0,45.0,1.0,0.3333333333333333,0.0,0.3333333333333333,0.3333333333333333,0.0,1,2183.000000019092
5,100,21,60.66666666666666,58.0,60.0,52.0,67.0,55.0,88.0,0.3333333333333333,0.0,0.3333333333333333,0.3333333333333333,0.0,1,3556.900000025053
5,100,22,64.0,64.0,35.0,70.0,76.0,81.0,30.0,0.3333333333333333,0.0,0.3333333333333333,0.3333333333333333,0.0,1,2915.099999983795
5,100,23,76.66666666666666,74.0,97.0,1.0,85.0,48.0,94.0,0.3333333333333333,0.0,0.3333333333333333,0.3333333333333333,0.0,1,3008.199999982025
5,100,24,37.0,43.0,10.0,52.0,82.0,19.0,63.0,0.3333333333333333,0.0,0.3333333333333333,0.3333333333333333,0.0,1,3505.799999984447
5,100,25,17.0,41.0,30.0,84.0,5.0,16.0,6.0,0.3333333333333333,0.0,0.3333333333333333,0.3333333333333333,0.0,1,5696.100000001025
5,100,26,46.33333333333333,63.0,29.0,37.0,43.0,67.0,75.0,0.3333333333333333,0.0,0.3333333333333333,0.3333333333333333,0.0,1,2379.7999999951567
5,100,27,34.666666666666664,41.0,8.0,58.0,25.0,71.0,28.0,0.3333333333333333,0.0,0.3333333333333333,0.3333333333333333,0.0,1,3157.3999999673106
5,100,28,83.0,81.0,97.0,47.0,69.0,83.0,91.0,0.3333333333333333,0.0,0.3333333333333333,0.3333333333333333,0.0,1,1751.9000000320373
5,100,29,63.66666666666666,95.0,87.0,88.0,6.0,98.0,94.0,0.3333333333333333,0.0,0.3333333333333333,0.3333333333333333,0.0,1,2059.6000000368804
5,100,30,51.66666666666666,56.0,50.0,14.0,9.0,96.0,52.0,0.3333333333333333,0.0,0.3333333333333333,0.3333333333333333,0.0,1,3236.299999989569
5,100,31,55.0,71.0,15.0,53.0,68.0,82.0,95.0,0.3333333333333333,0.0,0.3333333333333333,0.3333333333333333,0.0,1,2155.7000000029802
5,100,32,49.0,64.0,42.0,62.0,8.0,97.0,84.0,0.3333333333333333,0.0,0.3333333333333333,0.3333333333333333,0.0,1,2139.400000043679
5,100,33,18.0,26.0,15.0,38.0,11.0,28.0,39.0,0.3333333333333333,0.0,0.3333333333333333,0.3333333333333333,0.0,1,3661.199999973178
5,100,34,42.33333333333333,39.0,69.0,14.0,53.0,5.0,6.0,0.3333333333333333,0.0,0.3333333333333333,0.3333333333333333,0.0,1,2901.099999959115
5,100,35,45.0,47.0,82.0,85.0,41.0,12.0,94.0,0.3333333333333333,0.0,0.3333333333333333,0.3333333333333333,0.0,1,3038.0000000004657
5,100,36,45.66666666666666,51.0,82.0,38.0,18.0,37.0,61.0,0.3333333333333333,0.0,0.3333333333333333,0.3333333333333333,0.0,1,2236.800000013318
5,100,37,8.333333333333332,16.0,8.0,53.0,14.0,3.0,70.0,0.3333333333333333,0.0,0.3333333333333333,0.3333333333333333,0.0,1,2062.7999999560416
5,100,38,53.66666666666666,24.0,12.0,63.0,51.0,98.0,40.0,0.3333333333333333,0.0,0.3333333333333333,0.3333333333333333,0.0,1,2603.399999963585
5,100,39,60.66666666666666,40.0,94.0,70.0,37.0,51.0,5.0,0.3333333333333333,0.0,0.3333333333333333,0.3333333333333333,0.0,1,2619.699999981094
5,100,40,48.66666666666666,48.0,87.0,61.0,43.0,16.0,33.0,0.3333333333333333,0.0,0.3333333333333333,0.3333333333333333,0.0,1,2573.7000000081025
5,100,41,65.66666666666666,51.0,86.0,3.0,33.0,78.0,80.0,0.3333333333333333,0.0,0.3333333333333333,0.3333333333333333,0.0,1,2568.700000003446
5,100,42,39.66666666666666,44.0,89.0,26.0,13.0,17.0,86.0,0.3333333333333333,0.0,0.3333333333333333,0.3333333333333333,0.0,1,3003.8000000058673
5,100,43,62.33333333333333,63.0,65.0,67.0,43.0,79.0,96.0,0.3333333333333333,0.0,0.3333333333333333,0.3333333333333333,0.0,1,3539.600000018254
5,100,44,40.33333333333333,47.0,0.0,85.0,94.0,27.0,51.0,0.3333333333333333,0.0,0.3333333333333333,0.3333333333333333,0.0,1,3452.199999999721
5,100,45,65.66666666666667,63.0,88.0,3.0,86.0,23.0,96.0,0.3333333333333333,0.0,0.3333333333333333,0.3333333333333333,0.0,1,5997.0000000321315
5,100,46,39.0,43.0,10.0,87.0,15.0,92.0,25.0,0.3333333333333333,0.0,0.3333333333333333,0.3333333333333333,0.0,1,3177.9000000096858
5,100,47,43.66666666666666,37.0,94.0,5.0,33.0,4.0,88.0,0.3333333333333333,0.0,0.3333333333333333,0.3333333333333333,0.0,1,3406.5999999875207
5,100,48,51.66666666666666,55.0,48.0,48.0,72.0,35.0,70.0,0.3333333333333333,0.0,0.3333333333333333,0.3333333333333333,0.0,1,2040.3999999980442
5,100,49,33.33333333333333,56.0,6.0,27.0,94.0,0.0,58.0,0.3333333333333333,0.0,0.3333333333333333,0.3333333333333333,0.0,1,3642.3000000067987
5,100,50,67.33333333333333,49.0,87.0,51.0,28.0,87.0,64.0,0.3333333333333333,0.0,0.3333333333333333,0.3333333333333333,0.0,1,1923.4000000287774
5,100,51,58.66666666666666,43.0,81.0,72.0,29.0,66.0,98.0,0.3333333333333333,0.0,0.3333333333333333,0.3333333333333333,0.0,1,3503.8000000058673
5,100,52,56.33333333333333,34.0,6.0,25.0,73.0,90.0,3.0,0.3333333333333333,0.0,0.3333333333333333,0.3333333333333333,0.0,1,8051.100000040606
5,100,53,21.33333333333333,17.0,61.0,92.0,2.0,1.0,9.0,0.3333333333333333,0.0,0.3333333333333333,0.3333333333333333,0.0,1,2479.6000000205827
5,100,54,46.0,34.0,25.0,87.0,19.0,94.0,43.0,0.3333333333333333,0.0,0.3333333333333333,0.3333333333333333,0.0,1,4734.699999971781
5,100,55,27.0,22.0,40.0,54.0,3.0,38.0,31.0,0.3333333333333333,0.0,0.3333333333333333,0.3333333333333333,0.0,1,2756.3000000081956
5,100,56,33.666666666666664,16.0,30.0,34.0,20.0,51.0,94.0,0.3333333333333333,0.0,0.3333333333333333,0.3333333333333333,0.0,1,2388.5000000009313
5,100,57,34.0,21.0,8.0,1.0,80.0,14.0,86.0,0.3333333333333333,0.0,0.3333333333333333,0.3333333333333333,0.0,1,2587.799999979325
5,100,58,19.33333333333333,12.0,45.0,35.0,9.0,4.0,68.0,0.3333333333333333,0.0,0.3333333333333333,0.3333333333333333,0.0,1,5273.099999991246
5,100,59,58.0,39.0,71.0,51.0,49.0,54.0,30.0,0.3333333333333333,0.0,0.3333333333333333,0.3333333333333333,0.0,1,4374.599999981001
5,100,60,49.66666666666666,26.0,89.0,26.0,17.0,43.0,27.0,0.3333333333333333,0.0,0.3333333333333333,0.3333333333333333,0.0,1,3009.000000020024
5,100,61,41.66666666666666,25.0,92.0,91.0,13.0,20.0,30.0,0.3333333333333333,0.0,0.3333333333333333,0.3333333333333333,0.0,1,2312.3999999952507
5,100,62,72.66666666666666,57.0,47.0,26.0,95.0,76.0,15.0,0.3333333333333333,0.0,0.3333333333333333,0.3333333333333333,0.0,1,1891.8999999878
5,100,63,27.33333333333333,47.0,73.0,41.0,4.0,5.0,63.0,0.3333333333333333,0.0,0.3333333333333333,0.3333333333333333,0.0,1,1978.499999968335
5,100,64,16.666666666666668,19.0,0.0,1.0,48.0,2.0,12.0,0.3333333333333333,0.0,0.3333333333333333,0.3333333333333333,0.0,1,2006.5999999642368
5,100,65,52.0,50.0,80.0,64.0,64.0,12.0,44.0,0.3333333333333333,0.0,0.3333333333333333,0.3333333333333333,0.0,1,3087.1999999508257
5,100,66,43.66666666666666,40.0,92.0,49.0,21.0,18.0,62.0,0.3333333333333333,0.0,0.3333333333333333,0.3333333333333333,0.0,1,2436.4000000059605
5,100,67,67.33333333333333,64.0,99.0,40.0,86.0,17.0,18.0,0.3333333333333333,0.0,0.3333333333333333,0.3333333333333333,0.0,1,1834.7000000067053
5,100,68,89.0,69.0,96.0,72.0,71.0,100.0,59.0,0.3333333333333333,0.0,0.3333333333333333,0.3333333333333333,0.0,1,2563.199999975041
5,100,69,59.33333333333333,76.0,71.0,80.0,38.0,69.0,75.0,0.3333333333333333,0.0,0.3333333333333333,0.3333333333333333,0.0,1,2284.299999999348
5,100,70,55.0,59.0,78.0,4.0,8.0,79.0,82.0,0.3333333333333333,0.0,0.3333333333333333,0.3333333333333333,0.0,1,2205.6000000447966
5,100,71,61.0,51.0,87.0,93.0,23.0,73.0,50.0,0.3333333333333333,0.0,0.3333333333333333,0.3333333333333333,0.0,1,5348.100000002887
5,100,72,25.666666666666664,20.0,60.0,43.0,16.0,1.0,68.0,0.3333333333333333,0.0,0.3333333333333333,0.3333333333333333,0.0,1,2245.8000000333413
5,100,73,24.0,31.0,4.0,6.0,52.0,16.0,67.0,0.3333333333333333,0.0,0.3333333333333333,0.3333333333333333,0.0,1,2504.7999999951567
5,100,74,55.33333333333333,41.0,59.0,4.0,76.0,31.0,93.0,0.3333333333333333,0.0,0.3333333333333333,0.3333333333333333,0.0,1,4226.499999989755
5,100,75,65.33333333333333,35.0,53.0,58.0,50.0,93.0,11.0,0.3333333333333333,0.0,0.3333333333333333,0.3333333333333333,0.0,1,2925.0999999931078
5,100,76,34.0,48.0,37.0,13.0,65.0,0.0,68.0,0.3333333333333333,0.0,0.3333333333333333,0.3333333333333333,0.0,1,2023.1999999959955
5,100,77,36.66666666666666,38.0,37.0,39.0,18.0,55.0,39.0,0.3333333333333333,0.0,0.3333333333333333,0.3333333333333333,0.0,1,2139.2999999807216
5,100,78,85.0,65.0,90.0,27.0,70.0,95.0,39.0,0.3333333333333333,0.0,0.3333333333333333,0.3333333333333333,0.0,1,3416.4999999920838
5,100,79,51.0,54.0,87.0,77.0,36.0,30.0,31.0,0.3333333333333333,0.0,0.3333333333333333,0.3333333333333333,0.0,1,2211.899999994785
5,100,80,40.66666666666666,63.0,33.0,55.0,38.0,51.0,84.0,0.3333333333333333,0.0,0.3333333333333333,0.3333333333333333,0.0,1,1795.0000000419095
5,100,81,22.666666666666664,31.0,11.0,5.0,35.0,22.0,46.0,0.3333333333333333,0.0,0.3333333333333333,0.3333333333333333,0.0,1,2067.800000018906
5,100,82,37.66666666666666,29.0,22.0,32.0,52.0,39.0,0.0,0.3333333333333333,0.0,0.3333333333333333,0.3333333333333333,0.0,1,5103.999999992084
5,100,83,32.666666666666664,27.0,67.0,78.0,31.0,0.0,10.0,0.3333333333333333,0.0,0.3333333333333333,0.3333333333333333,0.0,1,20603.999999992084
5,100,84,90.0,89.0,82.0,53.0,98.0,90.0,23.0,0.3333333333333333,0.0,0.3333333333333333,0.3333333333333333,0.0,1,2874.4000000297087
5,100,85,34.0,33.0,8.0,42.0,77.0,17.0,56.0,0.3333333333333333,0.0,0.3333333333333333,0.3333333333333333,0.0,1,2403.700000024401
5,100,86,54.0,47.0,98.0,28.0,40.0,24.0,95.0,0.3333333333333333,0.0,0.3333333333333333,0.3333333333333333,0.0,1,2917.3999999766243
5,100,87,48.66666666666666,51.0,67.0,23.0,63.0,16.0,50.0,0.3333333333333333,0.0,0.3333333333333333,0.3333333333333333,0.0,1,2942.500000004657
5,100,88,59.33333333333333,37.0,82.0,99.0,9.0,87.0,94.0,0.3333333333333333,0.0,0.3333333333333333,0.3333333333333333,0.0,1,3082.500000018627
5,100,89,63.99999999999999,52.0,91.0,75.0,27.0,74.0,55.0,0.3333333333333333,0.0,0.3333333333333333,0.3333333333333333,0.0,1,2235.09999999078
5,100,90,85.33333333333333,76.0,81.0,14.0,87.0,88.0,98.0,0.3333333333333333,0.0,0.3333333333333333,0.3333333333333333,0.0,1,2127.9999999678694
5,100,91,40.0,36.0,46.0,93.0,23.0,51.0,77.0,0.3333333333333333,0.0,0.3333333333333333,0.3333333333333333,0.0,1,3637.899999972433
5,100,92,62.33333333333333,74.0,48.0,74.0,98.0,41.0,77.0,0.3333333333333333,0.0,0.3333333333333333,0.3333333333333333,0.0,1,2119.399999966845
5,100,93,20.666666666666664,19.0,14.0,35.0,10.0,38.0,11.0,0.3333333333333333,0.0,0.3333333333333333,0.3333333333333333,0.0,1,2601.699999999255
5,100,94,40.66666666666666,55.0,49.0,83.0,52.0,21.0,60.0,0.3333333333333333,0.0,0.3333333333333333,0.3333333333333333,0.0,1,2614.899999985937
5,100,95,38.99999999999999,45.0,20.0,70.0,92.0,5.0,55.0,0.3333333333333333,0.0,0.3333333333333333,0.3333333333333333,0.0,1,2255.5999999749474
5,100,96,62.66666666666666,39.0,79.0,16.0,93.0,16.0,40.0,0.3333333333333333,0.0,0.3333333333333333,0.3333333333333333,0.0,1,1886.7999999783933
5,100,97,74.33333333333333,87.0,56.0,14.0,77.0,90.0,94.0,0.3333333333333333,0.0,0.3333333333333333,0.3333333333333333,0.0,1,1904.7000000136904
5,100,98,58.66666666666666,82.0,13.0,98.0,98.0,65.0,2.0,0.3333333333333333,0.0,0.3333333333333333,0.3333333333333333,0.0,1,2345.0999999768105
5,100,99,49.99999999999999,56.0,89.0,57.0,47.0,14.0,63.0,0.3333333333333333,0.0,0.3333333333333333,0.3333333333333333,0.0,1,2931.700000015553
5,100,100,49.99999999999999,56.0,89.0,57.0,47.0,14.0,63.0,0.3333333333333333,0.0,0.3333333333333333,0.3333333333333333,0.0,1,2931.700000015553
6,100,1,59.33333333333333,47.0,54.0,54.0,95.0,69.0,14.0,0.0,0.0,0.3333333333333333,0.3333333333333333,0.3333333333333333,1,20084.540000068955
6,100,2,35.33333333333333,45.0,16.0,35.0,62.0,6.0,38.0,0.0,0.0,0.3333333333333333,0.3333333333333333,0.3333333333333333,1,4376.589999999851
6,100,3,84.66666666666666,77.0,32.0,68.0,89.0,98.0,67.0,0.0,0.0,0.3333333333333333,0.3333333333333333,0.3333333333333333,1,5747.875000000931
6,100,4,41.66666666666666,49.0,51.0,39.0,66.0,31.0,28.0,0.0,0.0,0.3333333333333333,0.3333333333333333,0.3333333333333333,1,5513.06500006467
6,100,5,54.0,57.0,13.0,53.0,42.0,47.0,73.0,0.0,0.0,0.3333333333333333,0.3333333333333333,0.3333333333333333,1,4355.545000056736
6,100,6,49.66666666666666,56.0,52.0,11.0,40.0,65.0,44.0,0.0,0.0,0.3333333333333333,0.3333333333333333,0.3333333333333333,1,3331.535000004805
6,100,7,55.66666666666666,58.0,7.0,64.0,66.0,56.0,45.0,0.0,0.0,0.3333333333333333,0.3333333333333333,0.3333333333333333,1,3219.020000076853
6,100,8,36.99999999999999,30.0,29.0,25.0,77.0,23.0,11.0,0.0,0.0,0.3333333333333333,0.3333333333333333,0.3333333333333333,1,5920.545000000857
6,100,9,32.33333333333333,28.0,26.0,97.0,8.0,22.0,67.0,0.0,0.0,0.3333333333333333,0.3333333333333333,0.3333333333333333,1,5745.3049999894565
6,100,10,76.33333333333333,72.0,99.0,71.0,73.0,58.0,98.0,0.0,0.0,0.3333333333333333,0.3333333333333333,0.3333333333333333,1,9282.84999995958
6,100,11,20.666666666666664,33.0,52.0,89.0,8.0,30.0,24.0,0.0,0.0,0.3333333333333333,0.3333333333333333,0.3333333333333333,1,4572.939999983646
6,100,12,33.0,41.0,1.0,40.0,16.0,62.0,21.0,0.0,0.0,0.3333333333333333,0.3333333333333333,0.3333333333333333,1,5503.900000010616
6,100,13,51.99999999999999,48.0,78.0,55.0,99.0,46.0,11.0,0.0,0.0,0.3333333333333333,0.3333333333333333,0.3333333333333333,1,5257.564999978058
6,100,14,88.33333333333331,81.0,31.0,81.0,84.0,92.0,89.0,0.0,0.0,0.3333333333333333,0.3333333333333333,0.3333333333333333,1,6785.249999957159
6,100,15,49.33333333333333,65.0,67.0,90.0,89.0,48.0,11.0,0.0,0.0,0.3333333333333333,0.3333333333333333,0.3333333333333333,1,6256.499999901279
6,100,16,29.33333333333333,21.0,9.0,56.0,31.0,12.0,45.0,0.0,0.0,0.3333333333333333,0.3333333333333333,0.3333333333333333,1,4512.709999922663
6,100,17,76.66666666666666,67.0,7.0,34.0,77.0,80.0,73.0,0.0,0.0,0.3333333333333333,0.3333333333333333,0.3333333333333333,1,5380.695000058039
6,100,18,57.0,70.0,74.0,71.0,44.0,52.0,75.0,0.0,0.0,0.3333333333333333,0.3333333333333333,0.3333333333333333,1,7551.494999905117
6,100,19,40.0,88.0,54.0,7.0,1.0,99.0,20.0,0.0,0.0,0.3333333333333333,0.3333333333333333,0.3333333333333333,1,3978.6050000693654
6,100,20,51.33333333333333,40.0,44.0,29.0,53.0,20.0,81.0,0.0,0.0,0.3333333333333333,0.3333333333333333,0.3333333333333333,1,5813.564999960363
6,100,21,43.0,32.0,17.0,13.0,7.0,98.0,24.0,0.0,0.0,0.3333333333333333,0.3333333333333333,0.3333333333333333,1,6695.0850000139335
6,100,22,38.33333333333333,69.0,45.0,48.0,27.0,83.0,5.0,0.0,0.0,0.3333333333333333,0.3333333333333333,0.3333333333333333,1,5794.925000052899
6,100,23,70.33333333333333,64.0,13.0,0.0,82.0,46.0,83.0,0.0,0.0,0.3333333333333333,0.3333333333333333,0.3333333333333333,1,5851.855000015348
6,100,24,38.66666666666666,61.0,45.0,20.0,15.0,72.0,29.0,0.0,0.0,0.3333333333333333,0.3333333333333333,0.3333333333333333,1,6190.275000059046
6,100,25,64.0,62.0,73.0,81.0,81.0,68.0,43.0,0.0,0.0,0.3333333333333333,0.3333333333333333,0.3333333333333333,1,3723.809999995865
6,100,26,58.0,58.0,18.0,45.0,83.0,19.0,72.0,0.0,0.0,0.3333333333333333,0.3333333333333333,0.3333333333333333,1,6283.750000060536
6,100,27,59.33333333333333,53.0,38.0,71.0,79.0,34.0,65.0,0.0,0.0,0.3333333333333333,0.3333333333333333,0.3333333333333333,1,3523.614999954589
6,100,28,62.0,61.0,56.0,57.0,73.0,40.0,73.0,0.0,0.0,0.3333333333333333,0.3333333333333333,0.3333333333333333,1,7441.959999967366
6,100,29,23.0,14.0,15.0,62.0,55.0,4.0,10.0,0.0,0.0,0.3333333333333333,0.3333333333333333,0.3333333333333333,1,5864.1500000376245
6,100,30,58.66666666666666,67.0,27.0,67.0,35.0,77.0,64.0,0.0,0.0,0.3333333333333333,0.3333333333333333,0.3333333333333333,1,5740.379999973811
6,100,31,38.0,49.0,63.0,89.0,7.0,39.0,68.0,0.0,0.0,0.3333333333333333,0.3333333333333333,0.3333333333333333,1,10520.15500003472
6,100,32,33.0,48.0,95.0,10.0,23.0,19.0,57.0,0.0,0.0,0.3333333333333333,0.3333333333333333,0.3333333333333333,1,5276.949999970384
6,100,33,29.33333333333333,36.0,56.0,82.0,35.0,41.0,12.0,0.0,0.0,0.3333333333333333,0.3333333333333333,0.3333333333333333,1,2559.679999947548
6,100,34,46.33333333333333,39.0,99.0,16.0,64.0,27.0,48.0,0.0,0.0,0.3333333333333333,0.3333333333333333,0.3333333333333333,1,5909.5300000626585
6,100,35,73.66666666666666,61.0,34.0,66.0,89.0,52.0,80.0,0.0,0.0,0.3333333333333333,0.3333333333333333,0.3333333333333333,1,2469.1849999362603
6,100,36,57.0,58.0,28.0,70.0,84.0,78.0,9.0,0.0,0.0,0.3333333333333333,0.3333333333333333,0.3333333333333333,1,4258.700000005774
6,100,37,51.0,58.0,94.0,44.0,64.0,7.0,82.0,0.0,0.0,0.3333333333333333,0.3333333333333333,0.3333333333333333,1,5863.804999971761
6,100,38,33.666666666666664,50.0,14.0,0.0,1.0,28.0,72.0,0.0,0.0,0.3333333333333333,0.3333333333333333,0.3333333333333333,1,3508.7999999523163
6,100,39,66.0,63.0,98.0,77.0,96.0,7.0,95.0,0.0,0.0,0.3333333333333333,0.3333333333333333,0.3333333333333333,1,3611.195000004954
6,100,40,32.666666666666664,28.0,55.0,41.0,56.0,24.0,18.0,0.0,0.0,0.3333333333333333,0.3333333333333333,0.3333333333333333,1,8273.305000038818
6,100,41,68.66666666666666,79.0,94.0,74.0,80.0,81.0,45.0,0.0,0.0,0.3333333333333333,0.3333333333333333,0.3333333333333333,1,5672.449999954552
6,100,42,37.33333333333333,45.0,38.0,18.0,20.0,52.0,40.0,0.0,0.0,0.3333333333333333,0.3333333333333333,0.3333333333333333,1,8206.030000001192
6,100,43,7.0,12.0,54.0,22.0,4.0,12.0,5.0,0.0,0.0,0.3333333333333333,0.3333333333333333,0.3333333333333333,1,3825.8849999401723
6,100,44,55.66666666666666,78.0,83.0,92.0,24.0,69.0,74.0,0.0,0.0,0.3333333333333333,0.3333333333333333,0.3333333333333333,1,6044.7250000434
6,100,45,58.66666666666666,64.0,28.0,44.0,78.0,9.0,89.0,0.0,0.0,0.3333333333333333,0.3333333333333333,0.3333333333333333,1,10460.560000035912
6,100,46,20.666666666666664,33.0,66.0,80.0,26.0,14.0,22.0,0.0,0.0,0.3333333333333333,0.3333333333333333,0.3333333333333333,1,4206.329999957234
6,100,47,51.0,54.0,73.0,41.0,75.0,53.0,25.0,0.0,0.0,0.3333333333333333,0.3333333333333333,0.3333333333333333,1,6575.575000024401
6,100,48,57.0,40.0,92.0,95.0,72.0,32.0,67.0,0.0,0.0,0.3333333333333333,0.3333333333333333,0.3333333333333333,1,5050.140000064857
6,100,49,49.66666666666666,59.0,21.0,95.0,62.0,79.0,8.0,0.0,0.0,0.3333333333333333,0.3333333333333333,0.3333333333333333,1,5073.594999965279
6,100,50,72.33333333333333,79.0,99.0,49.0,55.0,75.0,87.0,0.0,0.0,0.3333333333333333,0.3333333333333333,0.3333333333333333,1,10496.329999994488
6,100,51,76.33333333333333,82.0,15.0,26.0,51.0,85.0,93.0,0.0,0.0,0.3333333333333333,0.3333333333333333,0.3333333333333333,1,12211.030000005847
6,100,52,48.66666666666666,45.0,77.0,48.0,68.0,22.0,56.0,0.0,0.0,0.3333333333333333,0.3333333333333333,0.3333333333333333,1,15811.819999944419
6,100,53,59.33333333333333,51.0,3.0,53.0,46.0,63.0,69.0,0.0,0.0,0.3333333333333333,0.3333333333333333,0.3333333333333333,1,4342.14000008069
6,100,54,78.33333333333333,80.0,66.0,18.0,47.0,98.0,90.0,0.0,0.0,0.3333333333333333,0.3333333333333333,0.3333333333333333,1,6922.90999996476
6,100,55,20.666666666666664,12.0,6.0,87.0,43.0,12.0,7.0,0.0,0.0,0.3333333333333333,0.3333333333333333,0.3333333333333333,1,5569.535000016913
6,100,56,37.66666666666666,54.0,40.0,82.0,7.0,69.0,37.0,0.0,0.0,0.3333333333333333,0.3333333333333333,0.3333333333333333,1,4346.445000031963
6,100,57,31.0,23.0,42.0,19.0,35.0,34.0,24.0,0.0,0.0,0.3333333333333333,0.3333333333333333,0.3333333333333333,1,4695.975000038743
6,100,58,60.0,78.0,63.0,70.0,90.0,81.0,9.0,0.0,0.0,0.3333333333333333,0.3333333333333333,0.3333333333333333,1,5338.055000058375
6,100,59,62.0,72.0,76.0,57.0,44.0,48.0,94.0,0.0,0.0,0.3333333333333333,0.3333333333333333,0.3333333333333333,1,18104.449999984354
6,100,60,28.0,35.0,39.0,5.0,41.0,42.0,1.0,0.0,0.0,0.3333333333333333,0.3333333333333333,0.3333333333333333,1,7718.940000049771
6,100,61,28.333333333333336,35.0,22.0,87.0,36.0,1.0,48.0,0.0,0.0,0.3333333333333333,0.3333333333333333,0.3333333333333333,1,3424.3850000202656
6,100,62,62.66666666666666,59.0,58.0,70.0,89.0,45.0,54.0,0.0,0.0,0.3333333333333333,0.3333333333333333,0.3333333333333333,1,20747.005000011995
6,100,63,34.0,33.0,54.0,29.0,34.0,37.0,31.0,0.0,0.0,0.3333333333333333,0.3333333333333333,0.3333333333333333,1,10706.935000023805
6,100,64,58.0,84.0,25.0,7.0,1.0,81.0,92.0,0.0,0.0,0.3333333333333333,0.3333333333333333,0.3333333333333333,1,10670.730000012554
6,100,65,32.33333333333333,37.0,11.0,92.0,43.0,36.0,18.0,0.0,0.0,0.3333333333333333,0.3333333333333333,0.3333333333333333,1,17181.684999959543
6,100,66,64.0,73.0,23.0,66.0,87.0,92.0,13.0,0.0,0.0,0.3333333333333333,0.3333333333333333,0.3333333333333333,1,3905.405000085011
6,100,67,58.66666666666666,69.0,81.0,68.0,90.0,24.0,62.0,0.0,0.0,0.3333333333333333,0.3333333333333333,0.3333333333333333,1,11919.995000003835
6,100,68,60.99999999999999,59.0,100.0,83.0,72.0,61.0,50.0,0.0,0.0,0.3333333333333333,0.3333333333333333,0.3333333333333333,1,3736.1250000540167
6,100,69,66.66666666666666,74.0,82.0,66.0,98.0,78.0,24.0,0.0,0.0,0.3333333333333333,0.3333333333333333,0.3333333333333333,1,5120.690000010654
6,100,70,22.666666666666664,25.0,13.0,31.0,1.0,28.0,39.0,0.0,0.0,0.3333333333333333,0.3333333333333333,0.3333333333333333,1,6673.4449999639755
6,100,71,51.33333333333333,45.0,92.0,12.0,22.0,80.0,52.0,0.0,0.0,0.3333333333333333,0.3333333333333333,0.3333333333333333,1,4514.584999997169
6,100,72,45.33333333333333,57.0,48.0,76.0,19.0,36.0,81.0,0.0,0.0,0.3333333333333333,0.3333333333333333,0.3333333333333333,1,9663.12000004109
6,100,73,65.0,55.0,52.0,62.0,59.0,36.0,100.0,0.0,0.0,0.3333333333333333,0.3333333333333333,0.3333333333333333,1,3843.6199999414384
6,100,74,22.666666666666664,25.0,76.0,62.0,61.0,1.0,6.0,0.0,0.0,0.3333333333333333,0.3333333333333333,0.3333333333333333,1,7463.420000043698
6,100,75,30.0,33.0,65.0,12.0,23.0,55.0,12.0,0.0,0.0,0.3333333333333333,0.3333333333333333,0.3333333333333333,1,4629.5000000391165
6,100,76,18.33333333333333,25.0,59.0,45.0,6.0,5.0,44.0,0.0,0.0,0.3333333333333333,0.3333333333333333,0.3333333333333333,1,7393.275000038557
6,100,77,46.33333333333333,23.0,16.0,96.0,61.0,2.0,76.0,0.0,0.0,0.3333333333333333,0.3333333333333333,0.3333333333333333,1,5619.089999934658
6,100,78,89.66666666666666,94.0,0.0,19.0,98.0,83.0,88.0,0.0,0.0,0.3333333333333333,0.3333333333333333,0.3333333333333333,1,7440.650000004098
6,100,79,51.0,57.0,39.0,64.0,32.0,85.0,36.0,0.0,0.0,0.3333333333333333,0.3333333333333333,0.3333333333333333,1,12906.360000022689
6,100,80,94.0,95.0,53.0,45.0,92.0,94.0,96.0,0.0,0.0,0.3333333333333333,0.3333333333333333,0.3333333333333333,1,8724.214999936521
6,100,81,63.0,86.0,32.0,56.0,3.0,92.0,94.0,0.0,0.0,0.3333333333333333,0.3333333333333333,0.3333333333333333,1,5609.414999955335
6,100,82,21.0,17.0,5.0,89.0,22.0,22.0,19.0,0.0,0.0,0.3333333333333333,0.3333333333333333,0.3333333333333333,1,6479.719999944791
6,100,83,57.33333333333333,61.0,23.0,48.0,55.0,50.0,67.0,0.0,0.0,0.3333333333333333,0.3333333333333333,0.3333333333333333,1,6940.034999977796
6,100,84,55.66666666666666,54.0,4.0,67.0,92.0,62.0,13.0,0.0,0.0,0.3333333333333333,0.3333333333333333,0.3333333333333333,1,9404.244999983348
6,100,85,77.0,75.0,81.0,77.0,69.0,82.0,80.0,0.0,0.0,0.3333333333333333,0.3333333333333333,0.3333333333333333,1,7133.1549999304125
6,100,86,81.66666666666666,73.0,6.0,42.0,54.0,91.0,100.0,0.0,0.0,0.3333333333333333,0.3333333333333333,0.3333333333333333,1,7946.530000073835
6,100,87,37.33333333333333,35.0,19.0,48.0,67.0,18.0,27.0,0.0,0.0,0.3333333333333333,0.3333333333333333,0.3333333333333333,1,2936.7499999934807
6,100,88,33.0,49.0,76.0,44.0,9.0,80.0,10.0,0.0,0.0,0.3333333333333333,0.3333333333333333,0.3333333333333333,1,8679.514999967068
6,100,89,50.0,44.0,58.0,32.0,74.0,31.0,45.0,0.0,0.0,0.3333333333333333,0.3333333333333333,0.3333333333333333,1,17754.270000034012
6,100,90,30.666666666666664,27.0,84.0,89.0,74.0,6.0,12.0,0.0,0.0,0.3333333333333333,0.3333333333333333,0.3333333333333333,1,3439.795000012964
6,100,91,48.66666666666666,28.0,24.0,100.0,79.0,2.0,65.0,0.0,0.0,0.3333333333333333,0.3333333333333333,0.3333333333333333,1,10767.14000001084
6,100,92,33.0,34.0,72.0,37.0,24.0,46.0,29.0,0.0,0.0,0.3333333333333333,0.3333333333333333,0.3333333333333333,1,5086.790000088513
6,100,93,52.33333333333333,50.0,47.0,46.0,31.0,43.0,83.0,0.0,0.0,0.3333333333333333,0.3333333333333333,0.3333333333333333,1,6697.745000012219
6,100,94,52.0,45.0,5.0,21.0,48.0,28.0,80.0,0.0,0.0,0.3333333333333333,0.3333333333333333,0.3333333333333333,1,2475.755000021309
6,100,95,41.66666666666666,51.0,62.0,74.0,30.0,13.0,82.0,0.0,0.0,0.3333333333333333,0.3333333333333333,0.3333333333333333,1,5809.065000037664
6,100,96,51.33333333333333,49.0,35.0,69.0,43.0,52.0,59.0,0.0,0.0,0.3333333333333333,0.3333333333333333,0.3333333333333333,1,3442.6900000544265
6,100,97,29.0,29.0,89.0,35.0,17.0,29.0,41.0,0.0,0.0,0.3333333333333333,0.3333333333333333,0.3333333333333333,1,4996.1450000992045
6,100,98,39.0,40.0,86.0,10.0,4.0,90.0,23.0,0.0,0.0,0.3333333333333333,0.3333333333333333,0.3333333333333333,1,10126.014999928884
6,100,99,3.0,2.0,23.0,96.0,4.0,4.0,1.0,0.0,0.0,0.3333333333333333,0.3333333333333333,0.3333333333333333,1,5968.890000018291
6,100,100,34.33333333333333,30.0,31.0,25.0,12.0,59.0,32.0,0.0,0.0,0.3333333333333333,0.3333333333333333,0.3333333333333333,1,9350.525000016203
