sub,NTrials,iTrial,correct_response,response,bars1,bars2,bars3,bars4,bars5,weights1,weights2,weights3,weights4,weights5,condition,RT
1,100,1,52.66666666666666,62.0,59.0,42.0,68.0,57.0,87.0,0.3333333333333333,0.3333333333333333,0.0,0.3333333333333333,0.0,1,7517.0
1,100,2,66.0,47.0,89.0,72.0,93.0,37.0,90.0,0.3333333333333333,0.3333333333333333,0.0,0.3333333333333333,0.0,1,6570.0
1,100,3,66.0,47.0,89.0,72.0,93.0,37.0,90.0,0.3333333333333333,0.3333333333333333,0.0,0.3333333333333333,0.0,1,6570.0
1,100,4,58.0,54.0,54.0,75.0,99.0,45.0,75.0,0.3333333333333333,0.3333333333333333,0.0,0.3333333333333333,0.0,1,2157.0
1,100,5,40.66666666666666,17.0,7.0,100.0,49.0,15.0,94.0,0.3333333333333333,0.3333333333333333,0.0,0.3333333333333333,0.0,1,2853.0
1,100,6,41.33333333333333,43.0,36.0,57.0,69.0,31.0,67.0,0.3333333333333333,0.3333333333333333,0.0,0.3333333333333333,0.0,1,3740.0
1,100,7,56.99999999999999,75.0,98.0,2.0,70.0,71.0,33.0,0.3333333333333333,0.3333333333333333,0.0,0.3333333333333333,0.0,1,3504.0
1,100,8,56.99999999999999,75.0,98.0,2.0,70.0,71.0,33.0,0.3333333333333333,0.3333333333333333,0.0,0.3333333333333333,0.0,1,3504.0
1,100,9,35.0,53.0,75.0,6.0,82.0,24.0,27.0,0.3333333333333333,0.3333333333333333,0.0,0.3333333333333333,0.0,1,3618.0
1,100,10,35.0,53.0,75.0,6.0,82.0,24.0,27.0,0.3333333333333333,0.3333333333333333,0.0,0.3333333333333333,0.0,1,3618.0
1,100,11,33.33333333333333,34.0,67.0,5.0,48.0,28.0,58.0,0.3333333333333333,0.3333333333333333,0.0,0.3333333333333333,0.0,1,3800.0
1,100,12,75.66666666666666,42.0,85.0,85.0,21.0,57.0,64.0,0.3333333333333333,0.3333333333333333,0.0,0.3333333333333333,0.0,1,4176.0
1,100,13,75.66666666666666,42.0,85.0,85.0,21.0,57.0,64.0,0.3333333333333333,0.3333333333333333,0.0,0.3333333333333333,0.0,1,4176.0
1,100,14,49.66666666666666,39.0,28.0,58.0,3.0,63.0,43.0,0.3333333333333333,0.3333333333333333,0.0,0.3333333333333333,0.0,1,2919.0
1,100,15,49.66666666666666,39.0,28.0,58.0,3.0,63.0,43.0,0.3333333333333333,0.3333333333333333,0.0,0.3333333333333333,0.0,1,2919.0
1,100,16,58.66666666666666,54.0,72.0,93.0,50.0,11.0,31.0,0.3333333333333333,0.3333333333333333,0.0,0.3333333333333333,0.0,1,7509.0
1,100,17,58.66666666666666,54.0,72.0,93.0,50.0,11.0,31.0,0.3333333333333333,0.3333333333333333,0.0,0.3333333333333333,0.0,1,7509.0
1,100,18,34.33333333333333,65.0,29.0,62.0,57.0,12.0,49.0,0.3333333333333333,0.3333333333333333,0.0,0.3333333333333333,0.0,1,6630.0
1,100,19,34.33333333333333,65.0,29.0,62.0,57.0,12.0,49.0,0.3333333333333333,0.3333333333333333,0.0,0.3333333333333333,0.0,1,6630.0
1,100,20,34.33333333333333,65.0,29.0,62.0,57.0,12.0,49.0,0.3333333333333333,0.3333333333333333,0.0,0.3333333333333333,0.0,1,6630.0
1,100,21,29.0,48.0,22.0,9.0,74.0,56.0,12.0,0.3333333333333333,0.3333333333333333,0.0,0.3333333333333333,0.0,1,2383.0
1,100,22,54.66666666666666,70.0,19.0,55.0,91.0,90.0,78.0,0.3333333333333333,0.3333333333333333,0.0,0.3333333333333333,0.0,1,2804.0
1,100,23,54.66666666666666,70.0,19.0,55.0,91.0,90.0,78.0,0.3333333333333333,0.3333333333333333,0.0,0.3333333333333333,0.0,1,2804.0
1,100,24,70.0,55.0,93.0,42.0,36.0,75.0,21.0,0.3333333333333333,0.3333333333333333,0.0,0.3333333333333333,0.0,1,2087.0
1,100,25,70.0,55.0,93.0,42.0,36.0,75.0,21.0,0.3333333333333333,0.3333333333333333,0.0,0.3333333333333333,0.0,1,2087.0
1,100,26,70.0,55.0,93.0,42.0,36.0,75.0,21.0,0.3333333333333333,0.3333333333333333,0.0,0.3333333333333333,0.0,1,2087.0
1,100,27,60.33333333333333,59.0,4.0,83.0,20.0,94.0,45.0,0.3333333333333333,0.3333333333333333,0.0,0.3333333333333333,0.0,1,4115.0
1,100,28,36.99999999999999,44.0,64.0,39.0,82.0,8.0,86.0,0.3333333333333333,0.3333333333333333,0.0,0.3333333333333333,0.0,1,2928.0
1,100,29,51.99999999999999,54.0,43.0,63.0,6.0,50.0,89.0,0.3333333333333333,0.3333333333333333,0.0,0.3333333333333333,0.0,1,2434.0
1,100,30,62.66666666666666,52.0,88.0,50.0,6.0,50.0,56.0,0.3333333333333333,0.3333333333333333,0.0,0.3333333333333333,0.0,1,3475.0
1,100,31,82.66666666666666,84.0,60.0,91.0,86.0,97.0,39.0,0.3333333333333333,0.3333333333333333,0.0,0.3333333333333333,0.0,1,1776.0
1,100,32,50.66666666666666,80.0,38.0,78.0,78.0,36.0,100.0,0.3333333333333333,0.3333333333333333,0.0,0.3333333333333333,0.0,1,2574.0
1,100,33,44.0,52.0,40.0,48.0,13.0,44.0,69.0,0.3333333333333333,0.3333333333333333,0.0,0.3333333333333333,0.0,1,3466.0
1,100,34,80.0,70.0,86.0,84.0,7.0,70.0,75.0,0.3333333333333333,0.3333333333333333,0.0,0.3333333333333333,0.0,1,3618.0
1,100,35,80.0,70.0,86.0,84.0,7.0,70.0,75.0,0.3333333333333333,0.3333333333333333,0.0,0.3333333333333333,0.0,1,3618.0
1,100,36,66.66666666666666,64.0,86.0,98.0,31.0,16.0,68.0,0.3333333333333333,0.3333333333333333,0.0,0.3333333333333333,0.0,1,8240.0
1,100,37,42.66666666666666,78.0,74.0,19.0,92.0,35.0,86.0,0.3333333333333333,0.3333333333333333,0.0,0.3333333333333333,0.0,1,3715.0
1,100,38,42.66666666666666,78.0,74.0,19.0,92.0,35.0,86.0,0.3333333333333333,0.3333333333333333,0.0,0.3333333333333333,0.0,1,3715.0
1,100,39,65.33333333333333,62.0,25.0,81.0,74.0,90.0,58.0,0.3333333333333333,0.3333333333333333,0.0,0.3333333333333333,0.0,1,3018.0
1,100,40,60.33333333333333,53.0,1.0,94.0,71.0,86.0,5.0,0.3333333333333333,0.3333333333333333,0.0,0.3333333333333333,0.0,1,2199.0
1,100,41,56.33333333333333,61.0,91.0,45.0,59.0,33.0,75.0,0.3333333333333333,0.3333333333333333,0.0,0.3333333333333333,0.0,1,1687.0
1,100,42,33.0,45.0,89.0,9.0,42.0,1.0,57.0,0.3333333333333333,0.3333333333333333,0.0,0.3333333333333333,0.0,1,2734.0
1,100,43,33.0,45.0,89.0,9.0,42.0,1.0,57.0,0.3333333333333333,0.3333333333333333,0.0,0.3333333333333333,0.0,1,2734.0
1,100,44,35.33333333333333,23.0,68.0,23.0,10.0,15.0,91.0,0.3333333333333333,0.3333333333333333,0.0,0.3333333333333333,0.0,1,1983.0
1,100,45,46.33333333333333,43.0,60.0,15.0,32.0,64.0,92.0,0.3333333333333333,0.3333333333333333,0.0,0.3333333333333333,0.0,1,2833.0
1,100,46,55.66666666666666,62.0,84.0,25.0,88.0,58.0,48.0,0.3333333333333333,0.3333333333333333,0.0,0.3333333333333333,0.0,1,2963.0
1,100,47,51.66666666666666,40.0,85.0,49.0,75.0,21.0,97.0,0.3333333333333333,0.3333333333333333,0.0,0.3333333333333333,0.0,1,3354.0
1,100,48,26.666666666666664,56.0,0.0,71.0,95.0,9.0,92.0,0.3333333333333333,0.3333333333333333,0.0,0.3333333333333333,0.0,1,4693.0
1,100,49,26.666666666666664,56.0,0.0,71.0,95.0,9.0,92.0,0.3333333333333333,0.3333333333333333,0.0,0.3333333333333333,0.0,1,4693.0
1,100,50,76.66666666666666,65.0,88.0,44.0,42.0,98.0,32.0,0.3333333333333333,0.3333333333333333,0.0,0.3333333333333333,0.0,1,2430.0
1,100,51,40.66666666666666,36.0,1.0,87.0,6.0,34.0,82.0,0.3333333333333333,0.3333333333333333,0.0,0.3333333333333333,0.0,1,2531.0
1,100,52,23.666666666666664,43.0,8.0,31.0,94.0,32.0,62.0,0.3333333333333333,0.3333333333333333,0.0,0.3333333333333333,0.0,1,2462.0
1,100,53,51.66666666666666,52.0,75.0,66.0,2.0,14.0,94.0,0.3333333333333333,0.3333333333333333,0.0,0.3333333333333333,0.0,1,2012.0
1,100,54,62.0,61.0,56.0,85.0,72.0,45.0,80.0,0.3333333333333333,0.3333333333333333,0.0,0.3333333333333333,0.0,1,2581.0
1,100,55,48.33333333333333,47.0,18.0,54.0,98.0,73.0,36.0,0.3333333333333333,0.3333333333333333,0.0,0.3333333333333333,0.0,1,5332.0
1,100,56,60.33333333333333,52.0,70.0,16.0,51.0,95.0,51.0,0.3333333333333333,0.3333333333333333,0.0,0.3333333333333333,0.0,1,9259.0
1,100,57,42.33333333333333,45.0,20.0,87.0,0.0,20.0,11.0,0.3333333333333333,0.3333333333333333,0.0,0.3333333333333333,0.0,1,3847.0
1,100,58,57.33333333333333,40.0,81.0,14.0,16.0,77.0,65.0,0.3333333333333333,0.3333333333333333,0.0,0.3333333333333333,0.0,1,4703.0
1,100,59,46.33333333333333,54.0,44.0,29.0,87.0,66.0,35.0,0.3333333333333333,0.3333333333333333,0.0,0.3333333333333333,0.0,1,1898.0
1,100,60,56.0,46.0,34.0,73.0,52.0,61.0,82.0,0.3333333333333333,0.3333333333333333,0.0,0.3333333333333333,0.0,1,2392.0
1,100,61,51.0,61.0,8.0,81.0,43.0,64.0,87.0,0.3333333333333333,0.3333333333333333,0.0,0.3333333333333333,0.0,1,4036.0
1,100,62,44.0,44.0,42.0,15.0,86.0,75.0,13.0,0.3333333333333333,0.3333333333333333,0.0,0.3333333333333333,0.0,1,3578.0
1,100,63,54.0,59.0,79.0,35.0,20.0,48.0,3.0,0.3333333333333333,0.3333333333333333,0.0,0.3333333333333333,0.0,1,6397.0
1,100,64,51.66666666666666,44.0,52.0,46.0,1.0,57.0,31.0,0.3333333333333333,0.3333333333333333,0.0,0.3333333333333333,0.0,1,3798.0
1,100,65,42.66666666666666,65.0,16.0,13.0,24.0,99.0,63.0,0.3333333333333333,0.3333333333333333,0.0,0.3333333333333333,0.0,1,2006.0
1,100,66,42.66666666666666,65.0,16.0,13.0,24.0,99.0,63.0,0.3333333333333333,0.3333333333333333,0.0,0.3333333333333333,0.0,1,2006.0
1,100,67,62.0,44.0,59.0,48.0,42.0,79.0,37.0,0.3333333333333333,0.3333333333333333,0.0,0.3333333333333333,0.0,1,6963.0
1,100,68,69.66666666666666,79.0,86.0,42.0,60.0,81.0,91.0,0.3333333333333333,0.3333333333333333,0.0,0.3333333333333333,0.0,1,5329.0
1,100,69,48.0,47.0,23.0,46.0,84.0,75.0,78.0,0.3333333333333333,0.3333333333333333,0.0,0.3333333333333333,0.0,1,2391.0
1,100,70,54.99999999999999,31.0,47.0,56.0,17.0,62.0,58.0,0.3333333333333333,0.3333333333333333,0.0,0.3333333333333333,0.0,1,9679.0
1,100,71,42.33333333333333,61.0,54.0,71.0,87.0,2.0,91.0,0.3333333333333333,0.3333333333333333,0.0,0.3333333333333333,0.0,1,1988.0
1,100,72,72.0,57.0,76.0,90.0,73.0,50.0,46.0,0.3333333333333333,0.3333333333333333,0.0,0.3333333333333333,0.0,1,1561.0
1,100,73,49.66666666666666,49.0,67.0,45.0,67.0,37.0,75.0,0.3333333333333333,0.3333333333333333,0.0,0.3333333333333333,0.0,1,3379.0
1,100,74,48.66666666666666,57.0,84.0,41.0,69.0,21.0,25.0,0.3333333333333333,0.3333333333333333,0.0,0.3333333333333333,0.0,1,9966.0
1,100,75,57.66666666666666,43.0,16.0,62.0,4.0,95.0,65.0,0.3333333333333333,0.3333333333333333,0.0,0.3333333333333333,0.0,1,3554.0
1,100,76,57.66666666666666,43.0,16.0,62.0,4.0,95.0,65.0,0.3333333333333333,0.3333333333333333,0.0,0.3333333333333333,0.0,1,3554.0
1,100,77,61.66666666666666,72.0,55.0,56.0,81.0,74.0,14.0,0.3333333333333333,0.3333333333333333,0.0,0.3333333333333333,0.0,1,1724.0
1,100,78,33.666666666666664,50.0,42.0,0.0,91.0,59.0,69.0,0.3333333333333333,0.3333333333333333,0.0,0.3333333333333333,0.0,1,2971.0
1,100,79,77.66666666666666,67.0,75.0,60.0,1.0,98.0,33.0,0.3333333333333333,0.3333333333333333,0.0,0.3333333333333333,0.0,1,2201.0
1,100,80,77.66666666666666,67.0,75.0,60.0,1.0,98.0,33.0,0.3333333333333333,0.3333333333333333,0.0,0.3333333333333333,0.0,1,2201.0
1,100,81,64.0,84.0,58.0,55.0,85.0,79.0,61.0,0.3333333333333333,0.3333333333333333,0.0,0.3333333333333333,0.0,1,1482.0
1,100,82,38.333333333333336,44.0,63.0,51.0,66.0,1.0,5.0,0.3333333333333333,0.3333333333333333,0.0,0.3333333333333333,0.0,1,2477.0
1,100,83,50.0,33.0,87.0,45.0,46.0,18.0,39.0,0.3333333333333333,0.3333333333333333,0.0,0.3333333333333333,0.0,1,4533.0
1,100,84,37.66666666666666,35.0,23.0,89.0,65.0,1.0,0.0,0.3333333333333333,0.3333333333333333,0.0,0.3333333333333333,0.0,1,3835.0
1,100,85,71.66666666666666,53.0,83.0,92.0,22.0,40.0,62.0,0.3333333333333333,0.3333333333333333,0.0,0.3333333333333333,0.0,1,1362.0
1,100,86,71.66666666666666,53.0,83.0,92.0,22.0,40.0,62.0,0.3333333333333333,0.3333333333333333,0.0,0.3333333333333333,0.0,1,1362.0
1,100,87,42.66666666666666,54.0,12.0,85.0,7.0,31.0,98.0,0.3333333333333333,0.3333333333333333,0.0,0.3333333333333333,0.0,1,3244.0
1,100,88,53.99999999999999,52.0,65.0,41.0,29.0,56.0,75.0,0.3333333333333333,0.3333333333333333,0.0,0.3333333333333333,0.0,1,6876.0
1,100,89,55.33333333333333,62.0,76.0,27.0,67.0,63.0,24.0,0.3333333333333333,0.3333333333333333,0.0,0.3333333333333333,0.0,1,5241.0
1,100,90,43.66666666666666,61.0,60.0,53.0,68.0,18.0,61.0,0.3333333333333333,0.3333333333333333,0.0,0.3333333333333333,0.0,1,5006.0
1,100,91,43.66666666666666,61.0,60.0,53.0,68.0,18.0,61.0,0.3333333333333333,0.3333333333333333,0.0,0.3333333333333333,0.0,1,5006.0
1,100,92,43.66666666666666,61.0,60.0,53.0,68.0,18.0,61.0,0.3333333333333333,0.3333333333333333,0.0,0.3333333333333333,0.0,1,5006.0
1,100,93,15.666666666666664,32.0,23.0,15.0,45.0,9.0,51.0,0.3333333333333333,0.3333333333333333,0.0,0.3333333333333333,0.0,1,2422.0
1,100,94,63.33333333333333,78.0,77.0,16.0,10.0,97.0,84.0,0.3333333333333333,0.3333333333333333,0.0,0.3333333333333333,0.0,1,1982.0
1,100,95,38.0,40.0,36.0,30.0,17.0,48.0,17.0,0.3333333333333333,0.3333333333333333,0.0,0.3333333333333333,0.0,1,2259.0
1,100,96,52.66666666666666,61.0,76.0,64.0,36.0,18.0,85.0,0.3333333333333333,0.3333333333333333,0.0,0.3333333333333333,0.0,1,2871.0
1,100,97,19.0,55.0,26.0,2.0,94.0,29.0,65.0,0.3333333333333333,0.3333333333333333,0.0,0.3333333333333333,0.0,1,1933.0
1,100,98,73.66666666666666,67.0,95.0,27.0,99.0,99.0,58.0,0.3333333333333333,0.3333333333333333,0.0,0.3333333333333333,0.0,1,3018.0
1,100,99,73.66666666666666,67.0,95.0,27.0,99.0,99.0,58.0,0.3333333333333333,0.3333333333333333,0.0,0.3333333333333333,0.0,1,3018.0
1,100,100,66.66666666666666,50.0,98.0,68.0,65.0,34.0,7.0,0.3333333333333333,0.3333333333333333,0.0,0.3333333333333333,0.0,1,2463.0
2,100,1,54.33333333333333,68.0,50.0,52.0,76.0,75.0,35.0,0.0,0.3333333333333333,0.3333333333333333,0.0,0.3333333333333333,1,2558.0
2,100,2,48.33333333333333,74.0,63.0,47.0,27.0,91.0,71.0,0.0,0.3333333333333333,0.3333333333333333,0.0,0.3333333333333333,1,4174.0
2,100,3,43.66666666666666,76.0,90.0,44.0,0.0,38.0,87.0,0.0,0.3333333333333333,0.3333333333333333,0.0,0.3333333333333333,1,3055.0
2,100,4,39.33333333333333,42.0,77.0,59.0,54.0,87.0,5.0,0.0,0.3333333333333333,0.3333333333333333,0.0,0.3333333333333333,1,1376.0
2,100,5,24.33333333333333,42.0,77.0,9.0,56.0,93.0,8.0,0.0,0.3333333333333333,0.3333333333333333,0.0,0.3333333333333333,1,1081.0
2,100,6,66.66666666666666,93.0,70.0,73.0,32.0,73.0,95.0,0.0,0.3333333333333333,0.3333333333333333,0.0,0.3333333333333333,1,1753.0
2,100,7,77.66666666666666,100.0,45.0,81.0,53.0,8.0,99.0,0.0,0.3333333333333333,0.3333333333333333,0.0,0.3333333333333333,1,2528.0
2,100,8,61.33333333333333,65.0,74.0,87.0,15.0,96.0,82.0,0.0,0.3333333333333333,0.3333333333333333,0.0,0.3333333333333333,1,2736.0
2,100,9,77.33333333333333,76.0,34.0,89.0,54.0,30.0,89.0,0.0,0.3333333333333333,0.3333333333333333,0.0,0.3333333333333333,1,2416.0
2,100,10,53.33333333333333,56.0,22.0,74.0,8.0,28.0,78.0,0.0,0.3333333333333333,0.3333333333333333,0.0,0.3333333333333333,1,2150.0
2,100,11,50.99999999999999,29.0,69.0,95.0,35.0,32.0,23.0,0.0,0.3333333333333333,0.3333333333333333,0.0,0.3333333333333333,1,1769.0
2,100,12,71.0,84.0,42.0,86.0,54.0,44.0,73.0,0.0,0.3333333333333333,0.3333333333333333,0.0,0.3333333333333333,1,2487.0
2,100,13,57.0,61.0,84.0,18.0,84.0,7.0,69.0,0.0,0.3333333333333333,0.3333333333333333,0.0,0.3333333333333333,1,2063.0
2,100,14,46.33333333333333,63.0,43.0,34.0,49.0,54.0,56.0,0.0,0.3333333333333333,0.3333333333333333,0.0,0.3333333333333333,1,3114.0
2,100,15,47.0,57.0,74.0,8.0,94.0,58.0,39.0,0.0,0.3333333333333333,0.3333333333333333,0.0,0.3333333333333333,1,1959.0
2,100,16,65.0,46.0,71.0,99.0,35.0,47.0,61.0,0.0,0.3333333333333333,0.3333333333333333,0.0,0.3333333333333333,1,1927.0
2,100,17,30.0,61.0,29.0,5.0,8.0,75.0,77.0,0.0,0.3333333333333333,0.3333333333333333,0.0,0.3333333333333333,1,1708.0
2,100,18,44.33333333333333,54.0,68.0,46.0,16.0,62.0,71.0,0.0,0.3333333333333333,0.3333333333333333,0.0,0.3333333333333333,1,2528.0
2,100,19,79.0,81.0,48.0,66.0,71.0,55.0,100.0,0.0,0.3333333333333333,0.3333333333333333,0.0,0.3333333333333333,1,2908.0
2,100,20,19.666666666666664,40.0,11.0,1.0,25.0,70.0,33.0,0.0,0.3333333333333333,0.3333333333333333,0.0,0.3333333333333333,1,2528.0
2,100,21,65.66666666666667,57.0,85.0,95.0,88.0,18.0,14.0,0.0,0.3333333333333333,0.3333333333333333,0.0,0.3333333333333333,1,2871.0
2,100,22,36.99999999999999,29.0,42.0,62.0,44.0,44.0,5.0,0.0,0.3333333333333333,0.3333333333333333,0.0,0.3333333333333333,1,2258.0
2,100,23,53.33333333333333,52.0,55.0,60.0,62.0,84.0,38.0,0.0,0.3333333333333333,0.3333333333333333,0.0,0.3333333333333333,1,2686.0
2,100,24,34.33333333333333,39.0,30.0,88.0,1.0,13.0,14.0,0.0,0.3333333333333333,0.3333333333333333,0.0,0.3333333333333333,1,13144.0
2,100,25,57.33333333333333,62.0,22.0,57.0,90.0,12.0,25.0,0.0,0.3333333333333333,0.3333333333333333,0.0,0.3333333333333333,1,1694.0
2,100,26,43.66666666666666,53.0,79.0,38.0,16.0,67.0,77.0,0.0,0.3333333333333333,0.3333333333333333,0.0,0.3333333333333333,1,3384.0
2,100,27,62.0,43.0,65.0,94.0,82.0,57.0,10.0,0.0,0.3333333333333333,0.3333333333333333,0.0,0.3333333333333333,1,2835.0
2,100,28,54.99999999999999,60.0,37.0,91.0,45.0,42.0,29.0,0.0,0.3333333333333333,0.3333333333333333,0.0,0.3333333333333333,1,1302.0
2,100,29,40.66666666666666,40.0,85.0,9.0,95.0,22.0,18.0,0.0,0.3333333333333333,0.3333333333333333,0.0,0.3333333333333333,1,2123.0
2,100,30,86.66666666666666,87.0,85.0,79.0,82.0,34.0,99.0,0.0,0.3333333333333333,0.3333333333333333,0.0,0.3333333333333333,1,1718.0
2,100,31,50.66666666666666,54.0,7.0,31.0,56.0,50.0,65.0,0.0,0.3333333333333333,0.3333333333333333,0.0,0.3333333333333333,1,4365.0
2,100,32,20.666666666666664,40.0,45.0,21.0,19.0,31.0,22.0,0.0,0.3333333333333333,0.3333333333333333,0.0,0.3333333333333333,1,1596.0
2,100,33,61.0,57.0,79.0,99.0,47.0,21.0,37.0,0.0,0.3333333333333333,0.3333333333333333,0.0,0.3333333333333333,1,2919.0
2,100,34,83.66666666666666,88.0,23.0,79.0,85.0,35.0,87.0,0.0,0.3333333333333333,0.3333333333333333,0.0,0.3333333333333333,1,1449.0
2,100,35,68.0,72.0,63.0,33.0,84.0,4.0,87.0,0.0,0.3333333333333333,0.3333333333333333,0.0,0.3333333333333333,1,1717.0
2,100,36,47.0,51.0,9.0,27.0,22.0,4.0,92.0,0.0,0.3333333333333333,0.3333333333333333,0.0,0.3333333333333333,1,2185.0
2,100,37,54.33333333333333,27.0,87.0,63.0,64.0,15.0,36.0,0.0,0.3333333333333333,0.3333333333333333,0.0,0.3333333333333333,1,1405.0
2,100,38,36.99999999999999,65.0,14.0,4.0,10.0,21.0,97.0,0.0,0.3333333333333333,0.3333333333333333,0.0,0.3333333333333333,1,2569.0
2,100,39,59.33333333333333,59.0,73.0,16.0,100.0,70.0,62.0,0.0,0.3333333333333333,0.3333333333333333,0.0,0.3333333333333333,1,2284.0
2,100,40,70.0,71.0,13.0,77.0,79.0,23.0,54.0,0.0,0.3333333333333333,0.3333333333333333,0.0,0.3333333333333333,1,1348.0
2,100,41,39.0,47.0,25.0,31.0,43.0,17.0,43.0,0.0,0.3333333333333333,0.3333333333333333,0.0,0.3333333333333333,1,2075.0
2,100,42,42.33333333333333,44.0,33.0,92.0,33.0,23.0,2.0,0.0,0.3333333333333333,0.3333333333333333,0.0,0.3333333333333333,1,2883.0
2,100,43,43.0,57.0,89.0,36.0,37.0,10.0,56.0,0.0,0.3333333333333333,0.3333333333333333,0.0,0.3333333333333333,1,4881.0
2,100,44,34.666666666666664,45.0,37.0,6.0,38.0,67.0,60.0,0.0,0.3333333333333333,0.3333333333333333,0.0,0.3333333333333333,1,2037.0
2,100,45,50.33333333333333,46.0,64.0,52.0,12.0,57.0,87.0,0.0,0.3333333333333333,0.3333333333333333,0.0,0.3333333333333333,1,7580.0
2,100,46,65.33333333333333,66.0,87.0,52.0,60.0,73.0,84.0,0.0,0.3333333333333333,0.3333333333333333,0.0,0.3333333333333333,1,2468.0
2,100,47,58.33333333333333,65.0,28.0,95.0,65.0,3.0,15.0,0.0,0.3333333333333333,0.3333333333333333,0.0,0.3333333333333333,1,2334.0
2,100,48,41.0,60.0,55.0,19.0,23.0,81.0,81.0,0.0,0.3333333333333333,0.3333333333333333,0.0,0.3333333333333333,1,3468.0
2,100,49,42.0,48.0,72.0,58.0,0.0,79.0,68.0,0.0,0.3333333333333333,0.3333333333333333,0.0,0.3333333333333333,1,3879.0
2,100,50,85.0,75.0,94.0,91.0,81.0,43.0,83.0,0.0,0.3333333333333333,0.3333333333333333,0.0,0.3333333333333333,1,3169.0
2,100,51,50.0,49.0,82.0,54.0,96.0,10.0,0.0,0.0,0.3333333333333333,0.3333333333333333,0.0,0.3333333333333333,1,3470.0
2,100,52,59.0,59.0,86.0,71.0,96.0,93.0,10.0,0.0,0.3333333333333333,0.3333333333333333,0.0,0.3333333333333333,1,2660.0
2,100,53,60.66666666666666,60.0,6.0,42.0,56.0,39.0,84.0,0.0,0.3333333333333333,0.3333333333333333,0.0,0.3333333333333333,1,2358.0
2,100,54,55.0,55.0,3.0,44.0,93.0,69.0,28.0,0.0,0.3333333333333333,0.3333333333333333,0.0,0.3333333333333333,1,1787.0
2,100,55,61.0,63.0,39.0,88.0,14.0,62.0,81.0,0.0,0.3333333333333333,0.3333333333333333,0.0,0.3333333333333333,1,4220.0
2,100,56,38.66666666666666,45.0,36.0,34.0,45.0,2.0,37.0,0.0,0.3333333333333333,0.3333333333333333,0.0,0.3333333333333333,1,3067.0
2,100,57,48.0,46.0,41.0,31.0,29.0,81.0,84.0,0.0,0.3333333333333333,0.3333333333333333,0.0,0.3333333333333333,1,2489.0
2,100,58,66.66666666666666,58.0,29.0,49.0,57.0,4.0,94.0,0.0,0.3333333333333333,0.3333333333333333,0.0,0.3333333333333333,1,2832.0
2,100,59,61.33333333333333,48.0,13.0,66.0,89.0,43.0,29.0,0.0,0.3333333333333333,0.3333333333333333,0.0,0.3333333333333333,1,4331.0
2,100,60,61.33333333333333,48.0,41.0,69.0,39.0,27.0,76.0,0.0,0.3333333333333333,0.3333333333333333,0.0,0.3333333333333333,1,8866.0
2,100,61,62.33333333333333,69.0,52.0,64.0,75.0,95.0,48.0,0.0,0.3333333333333333,0.3333333333333333,0.0,0.3333333333333333,1,3456.0
2,100,62,60.66666666666666,61.0,23.0,96.0,24.0,32.0,62.0,0.0,0.3333333333333333,0.3333333333333333,0.0,0.3333333333333333,1,5089.0
2,100,63,53.33333333333333,56.0,60.0,38.0,50.0,52.0,72.0,0.0,0.3333333333333333,0.3333333333333333,0.0,0.3333333333333333,1,6174.0
2,100,64,28.33333333333333,41.0,45.0,45.0,0.0,6.0,40.0,0.0,0.3333333333333333,0.3333333333333333,0.0,0.3333333333333333,1,3084.0
2,100,65,68.33333333333333,55.0,67.0,85.0,56.0,27.0,64.0,0.0,0.3333333333333333,0.3333333333333333,0.0,0.3333333333333333,1,2857.0
2,100,66,37.66666666666666,48.0,68.0,66.0,36.0,37.0,11.0,0.0,0.3333333333333333,0.3333333333333333,0.0,0.3333333333333333,1,6180.0
2,100,67,83.33333333333331,57.0,12.0,99.0,98.0,64.0,53.0,0.0,0.3333333333333333,0.3333333333333333,0.0,0.3333333333333333,1,2207.0
2,100,68,35.0,31.0,59.0,62.0,30.0,28.0,13.0,0.0,0.3333333333333333,0.3333333333333333,0.0,0.3333333333333333,1,6451.0
2,100,69,33.666666666666664,59.0,57.0,73.0,1.0,60.0,27.0,0.0,0.3333333333333333,0.3333333333333333,0.0,0.3333333333333333,1,3800.0
2,100,70,64.33333333333333,61.0,47.0,85.0,72.0,61.0,36.0,0.0,0.3333333333333333,0.3333333333333333,0.0,0.3333333333333333,1,3152.0
2,100,71,49.33333333333333,53.0,98.0,50.0,24.0,22.0,74.0,0.0,0.3333333333333333,0.3333333333333333,0.0,0.3333333333333333,1,4128.0
2,100,72,37.66666666666666,47.0,40.0,2.0,61.0,78.0,50.0,0.0,0.3333333333333333,0.3333333333333333,0.0,0.3333333333333333,1,3197.0
2,100,73,39.0,35.0,25.0,19.0,56.0,11.0,42.0,0.0,0.3333333333333333,0.3333333333333333,0.0,0.3333333333333333,1,9064.0
2,100,74,45.0,41.0,38.0,35.0,33.0,37.0,67.0,0.0,0.3333333333333333,0.3333333333333333,0.0,0.3333333333333333,1,4120.0
2,100,75,24.666666666666664,40.0,70.0,40.0,28.0,89.0,6.0,0.0,0.3333333333333333,0.3333333333333333,0.0,0.3333333333333333,1,3295.0
2,100,76,60.33333333333333,30.0,23.0,85.0,62.0,11.0,34.0,0.0,0.3333333333333333,0.3333333333333333,0.0,0.3333333333333333,1,2462.0
2,100,77,42.333333333333336,34.0,0.0,30.0,96.0,70.0,1.0,0.0,0.3333333333333333,0.3333333333333333,0.0,0.3333333333333333,1,3714.0
2,100,78,37.66666666666666,34.0,78.0,0.0,44.0,34.0,69.0,0.0,0.3333333333333333,0.3333333333333333,0.0,0.3333333333333333,1,1822.0
2,100,79,46.0,59.0,97.0,15.0,53.0,81.0,70.0,0.0,0.3333333333333333,0.3333333333333333,0.0,0.3333333333333333,1,2669.0
2,100,80,19.0,31.0,87.0,7.0,27.0,79.0,23.0,0.0,0.3333333333333333,0.3333333333333333,0.0,0.3333333333333333,1,1836.0
2,100,81,71.66666666666666,71.0,82.0,64.0,71.0,94.0,80.0,0.0,0.3333333333333333,0.3333333333333333,0.0,0.3333333333333333,1,1700.0
2,100,82,25.666666666666664,42.0,32.0,15.0,8.0,86.0,54.0,0.0,0.3333333333333333,0.3333333333333333,0.0,0.3333333333333333,1,2473.0
2,100,83,40.0,36.0,74.0,19.0,53.0,7.0,48.0,0.0,0.3333333333333333,0.3333333333333333,0.0,0.3333333333333333,1,3222.0
2,100,84,46.66666666666666,39.0,45.0,30.0,24.0,85.0,86.0,0.0,0.3333333333333333,0.3333333333333333,0.0,0.3333333333333333,1,1655.0
2,100,85,44.33333333333333,46.0,83.0,91.0,13.0,33.0,29.0,0.0,0.3333333333333333,0.3333333333333333,0.0,0.3333333333333333,1,3106.0
2,100,86,8.0,19.0,23.0,13.0,5.0,20.0,6.0,0.0,0.3333333333333333,0.3333333333333333,0.0,0.3333333333333333,1,1900.0
2,100,87,30.666666666666664,37.0,51.0,0.0,56.0,36.0,36.0,0.0,0.3333333333333333,0.3333333333333333,0.0,0.3333333333333333,1,1959.0
2,100,88,29.666666666666664,21.0,96.0,43.0,30.0,9.0,16.0,0.0,0.3333333333333333,0.3333333333333333,0.0,0.3333333333333333,1,1221.0
2,100,89,67.33333333333333,46.0,60.0,36.0,92.0,46.0,74.0,0.0,0.3333333333333333,0.3333333333333333,0.0,0.3333333333333333,1,962.0
2,100,90,70.99999999999999,36.0,19.0,97.0,91.0,13.0,25.0,0.0,0.3333333333333333,0.3333333333333333,0.0,0.3333333333333333,1,1774.0
2,100,91,70.66666666666666,39.0,90.0,60.0,76.0,31.0,76.0,0.0,0.3333333333333333,0.3333333333333333,0.0,0.3333333333333333,1,1563.0
2,100,92,30.0,35.0,53.0,39.0,21.0,27.0,30.0,0.0,0.3333333333333333,0.3333333333333333,0.0,0.3333333333333333,1,1161.0
2,100,93,64.0,70.0,61.0,66.0,28.0,83.0,98.0,0.0,0.3333333333333333,0.3333333333333333,0.0,0.3333333333333333,1,2213.0
2,100,94,47.0,52.0,52.0,9.0,64.0,86.0,68.0,0.0,0.3333333333333333,0.3333333333333333,0.0,0.3333333333333333,1,1539.0
2,100,95,70.33333333333333,67.0,62.0,90.0,46.0,21.0,75.0,0.0,0.3333333333333333,0.3333333333333333,0.0,0.3333333333333333,1,1540.0
2,100,96,31.0,27.0,37.0,71.0,14.0,29.0,8.0,0.0,0.3333333333333333,0.3333333333333333,0.0,0.3333333333333333,1,1402.0
2,100,97,39.0,31.0,10.0,65.0,48.0,47.0,4.0,0.0,0.3333333333333333,0.3333333333333333,0.0,0.3333333333333333,1,1476.0
2,100,98,56.0,45.0,72.0,62.0,99.0,94.0,7.0,0.0,0.3333333333333333,0.3333333333333333,0.0,0.3333333333333333,1,1539.0
2,100,99,77.0,76.0,80.0,77.0,82.0,98.0,72.0,0.0,0.3333333333333333,0.3333333333333333,0.0,0.3333333333333333,1,3966.0
2,100,100,83.33333333333333,60.0,29.0,83.0,81.0,34.0,86.0,0.0,0.3333333333333333,0.3333333333333333,0.0,0.3333333333333333,1,1206.0
3,100,1,62.0,76.0,75.0,50.0,88.0,5.0,48.0,0.0,0.3333333333333333,0.3333333333333333,0.0,0.3333333333333333,1,6468.0
3,100,2,62.33333333333333,56.0,75.0,44.0,55.0,56.0,88.0,0.0,0.3333333333333333,0.3333333333333333,0.0,0.3333333333333333,1,4246.0
3,100,3,46.0,69.0,73.0,47.0,78.0,98.0,13.0,0.0,0.3333333333333333,0.3333333333333333,0.0,0.3333333333333333,1,4861.0
3,100,4,44.33333333333334,22.0,0.0,24.0,87.0,47.0,22.0,0.0,0.3333333333333333,0.3333333333333333,0.0,0.3333333333333333,1,2214.0
3,100,5,41.33333333333333,46.0,35.0,26.0,35.0,69.0,63.0,0.0,0.3333333333333333,0.3333333333333333,0.0,0.3333333333333333,1,4944.0
3,100,6,40.99999999999999,41.0,28.0,47.0,50.0,99.0,26.0,0.0,0.3333333333333333,0.3333333333333333,0.0,0.3333333333333333,1,2807.0
3,100,7,19.666666666666664,31.0,28.0,14.0,36.0,59.0,9.0,0.0,0.3333333333333333,0.3333333333333333,0.0,0.3333333333333333,1,2318.0
3,100,8,39.66666666666666,32.0,40.0,42.0,54.0,1.0,23.0,0.0,0.3333333333333333,0.3333333333333333,0.0,0.3333333333333333,1,3586.0
3,100,9,60.0,47.0,55.0,73.0,85.0,79.0,22.0,0.0,0.3333333333333333,0.3333333333333333,0.0,0.3333333333333333,1,3122.0
3,100,10,42.33333333333333,10.0,33.0,10.0,47.0,3.0,70.0,0.0,0.3333333333333333,0.3333333333333333,0.0,0.3333333333333333,1,2490.0
3,100,11,43.66666666666666,66.0,51.0,92.0,4.0,17.0,35.0,0.0,0.3333333333333333,0.3333333333333333,0.0,0.3333333333333333,1,2465.0
3,100,12,38.0,36.0,70.0,25.0,62.0,73.0,27.0,0.0,0.3333333333333333,0.3333333333333333,0.0,0.3333333333333333,1,2641.0
3,100,13,64.0,68.0,73.0,52.0,42.0,10.0,98.0,0.0,0.3333333333333333,0.3333333333333333,0.0,0.3333333333333333,1,16672.0
3,100,14,54.66666666666666,62.0,40.0,20.0,84.0,33.0,60.0,0.0,0.3333333333333333,0.3333333333333333,0.0,0.3333333333333333,1,4682.9999999999845
3,100,15,55.0,55.0,3.0,98.0,60.0,92.0,7.0,0.0,0.3333333333333333,0.3333333333333333,0.0,0.3333333333333333,1,4267.0
3,100,16,33.33333333333333,51.0,51.0,6.0,11.0,39.0,83.0,0.0,0.3333333333333333,0.3333333333333333,0.0,0.3333333333333333,1,2113.0
3,100,17,48.0,49.0,49.0,47.0,42.0,5.0,55.0,0.0,0.3333333333333333,0.3333333333333333,0.0,0.3333333333333333,1,1849.0
3,100,18,72.0,67.0,14.0,60.0,80.0,24.0,76.0,0.0,0.3333333333333333,0.3333333333333333,0.0,0.3333333333333333,1,1840.0
3,100,19,86.33333333333331,84.0,48.0,93.0,92.0,38.0,74.0,0.0,0.3333333333333333,0.3333333333333333,0.0,0.3333333333333333,1,1807.0
3,100,20,67.66666666666666,85.0,78.0,81.0,82.0,1.0,40.0,0.0,0.3333333333333333,0.3333333333333333,0.0,0.3333333333333333,1,1968.0000000000146
3,100,21,34.0,44.0,74.0,55.0,23.0,19.0,24.0,0.0,0.3333333333333333,0.3333333333333333,0.0,0.3333333333333333,1,3843.0
3,100,22,72.66666666666666,76.0,42.0,70.0,96.0,17.0,52.0,0.0,0.3333333333333333,0.3333333333333333,0.0,0.3333333333333333,1,1816.0
3,100,23,18.0,32.0,73.0,9.0,14.0,79.0,31.0,0.0,0.3333333333333333,0.3333333333333333,0.0,0.3333333333333333,1,2433.0
3,100,24,68.66666666666666,74.0,49.0,94.0,64.0,74.0,48.0,0.0,0.3333333333333333,0.3333333333333333,0.0,0.3333333333333333,1,2670.000000000029
3,100,25,56.33333333333333,37.0,61.0,60.0,21.0,80.0,88.0,0.0,0.3333333333333333,0.3333333333333333,0.0,0.3333333333333333,1,3016.0
3,100,26,43.66666666666666,26.0,74.0,13.0,88.0,7.0,30.0,0.0,0.3333333333333333,0.3333333333333333,0.0,0.3333333333333333,1,2246.0
3,100,27,50.33333333333333,64.0,52.0,65.0,2.0,41.0,84.0,0.0,0.3333333333333333,0.3333333333333333,0.0,0.3333333333333333,1,2360.0
3,100,28,50.66666666666667,69.0,23.0,7.0,90.0,13.0,55.0,0.0,0.3333333333333333,0.3333333333333333,0.0,0.3333333333333333,1,4250.0
3,100,29,79.66666666666666,87.0,81.0,80.0,87.0,85.0,72.0,0.0,0.3333333333333333,0.3333333333333333,0.0,0.3333333333333333,1,2675.999999999971
3,100,30,41.0,51.0,66.0,34.0,22.0,44.0,67.0,0.0,0.3333333333333333,0.3333333333333333,0.0,0.3333333333333333,1,2441.0
3,100,31,54.33333333333333,63.0,90.0,49.0,34.0,46.0,80.0,0.0,0.3333333333333333,0.3333333333333333,0.0,0.3333333333333333,1,15729.0
3,100,32,55.0,77.0,83.0,37.0,48.0,87.0,80.0,0.0,0.3333333333333333,0.3333333333333333,0.0,0.3333333333333333,1,2115.0
3,100,33,28.66666666666667,41.0,65.0,45.0,33.0,85.0,8.0,0.0,0.3333333333333333,0.3333333333333333,0.0,0.3333333333333333,1,3730.0
3,100,34,39.0,19.0,58.0,66.0,13.0,10.0,38.0,0.0,0.3333333333333333,0.3333333333333333,0.0,0.3333333333333333,1,1422.0
3,100,35,66.0,57.0,17.0,51.0,89.0,35.0,58.0,0.0,0.3333333333333333,0.3333333333333333,0.0,0.3333333333333333,1,2634.999999999971
3,100,36,51.0,54.0,38.0,70.0,29.0,94.0,54.0,0.0,0.3333333333333333,0.3333333333333333,0.0,0.3333333333333333,1,2013.0
3,100,37,40.99999999999999,55.0,63.0,97.0,23.0,50.0,3.0,0.0,0.3333333333333333,0.3333333333333333,0.0,0.3333333333333333,1,2247.999999999971
3,100,38,30.666666666666664,45.0,59.0,53.0,8.0,27.0,31.0,0.0,0.3333333333333333,0.3333333333333333,0.0,0.3333333333333333,1,2917.0
3,100,39,49.0,40.0,33.0,49.0,32.0,98.0,66.0,0.0,0.3333333333333333,0.3333333333333333,0.0,0.3333333333333333,1,2530.0
3,100,40,66.0,55.0,44.0,90.0,16.0,80.0,92.0,0.0,0.3333333333333333,0.3333333333333333,0.0,0.3333333333333333,1,1732.0
3,100,41,57.0,56.0,62.0,15.0,77.0,35.0,79.0,0.0,0.3333333333333333,0.3333333333333333,0.0,0.3333333333333333,1,5909.0
3,100,42,51.33333333333333,76.0,47.0,8.0,75.0,93.0,71.0,0.0,0.3333333333333333,0.3333333333333333,0.0,0.3333333333333333,1,5279.0
3,100,43,44.99999999999999,60.0,86.0,15.0,91.0,29.0,29.0,0.0,0.3333333333333333,0.3333333333333333,0.0,0.3333333333333333,1,1806.0
3,100,44,31.33333333333333,57.0,26.0,15.0,2.0,22.0,77.0,0.0,0.3333333333333333,0.3333333333333333,0.0,0.3333333333333333,1,2392.0
3,100,45,56.66666666666666,40.0,1.0,25.0,94.0,94.0,51.0,0.0,0.3333333333333333,0.3333333333333333,0.0,0.3333333333333333,1,3950.0
3,100,46,29.33333333333333,30.0,68.0,27.0,14.0,29.0,47.0,0.0,0.3333333333333333,0.3333333333333333,0.0,0.3333333333333333,1,5480.0
3,100,47,20.666666666666668,23.0,74.0,34.0,17.0,32.0,11.0,0.0,0.3333333333333333,0.3333333333333333,0.0,0.3333333333333333,1,3346.0
3,100,48,48.66666666666666,42.0,73.0,0.0,68.0,14.0,78.0,0.0,0.3333333333333333,0.3333333333333333,0.0,0.3333333333333333,1,2665.000000000058
3,100,49,51.66666666666666,55.0,53.0,76.0,8.0,97.0,71.0,0.0,0.3333333333333333,0.3333333333333333,0.0,0.3333333333333333,1,3518.0
3,100,50,61.33333333333333,64.0,11.0,72.0,72.0,63.0,40.0,0.0,0.3333333333333333,0.3333333333333333,0.0,0.3333333333333333,1,3543.0
3,100,51,18.33333333333333,18.0,69.0,49.0,0.0,14.0,6.0,0.0,0.3333333333333333,0.3333333333333333,0.0,0.3333333333333333,1,3139.0
3,100,52,65.33333333333333,50.0,79.0,81.0,17.0,92.0,98.0,0.0,0.3333333333333333,0.3333333333333333,0.0,0.3333333333333333,1,4627.0
3,100,53,55.33333333333333,63.0,3.0,67.0,6.0,86.0,93.0,0.0,0.3333333333333333,0.3333333333333333,0.0,0.3333333333333333,1,2332.0
3,100,54,36.333333333333336,31.0,9.0,87.0,6.0,68.0,16.0,0.0,0.3333333333333333,0.3333333333333333,0.0,0.3333333333333333,1,3187.000000000058
3,100,55,34.666666666666664,32.0,54.0,21.0,26.0,18.0,57.0,0.0,0.3333333333333333,0.3333333333333333,0.0,0.3333333333333333,1,1548.0
3,100,56,59.99999999999999,45.0,22.0,45.0,85.0,59.0,50.0,0.0,0.3333333333333333,0.3333333333333333,0.0,0.3333333333333333,1,2010.0
3,100,57,57.66666666666666,46.0,99.0,65.0,47.0,39.0,61.0,0.0,0.3333333333333333,0.3333333333333333,0.0,0.3333333333333333,1,1598.0
3,100,58,21.33333333333333,27.0,28.0,14.0,28.0,20.0,22.0,0.0,0.3333333333333333,0.3333333333333333,0.0,0.3333333333333333,1,3162.0
3,100,59,51.0,51.0,96.0,58.0,28.0,54.0,67.0,0.0,0.3333333333333333,0.3333333333333333,0.0,0.3333333333333333,1,2521.0
3,100,60,62.0,58.0,83.0,75.0,56.0,27.0,55.0,0.0,0.3333333333333333,0.3333333333333333,0.0,0.3333333333333333,1,2538.0
3,100,61,43.33333333333333,42.0,57.0,32.0,32.0,77.0,66.0,0.0,0.3333333333333333,0.3333333333333333,0.0,0.3333333333333333,1,1840.0
3,100,62,47.33333333333333,52.0,90.0,83.0,39.0,88.0,20.0,0.0,0.3333333333333333,0.3333333333333333,0.0,0.3333333333333333,1,1889.0
3,100,63,49.66666666666666,48.0,49.0,33.0,73.0,61.0,43.0,0.0,0.3333333333333333,0.3333333333333333,0.0,0.3333333333333333,1,1944.0
3,100,64,35.66666666666666,38.0,27.0,20.0,59.0,95.0,28.0,0.0,0.3333333333333333,0.3333333333333333,0.0,0.3333333333333333,1,2829.0
3,100,65,69.33333333333333,56.0,95.0,30.0,96.0,12.0,82.0,0.0,0.3333333333333333,0.3333333333333333,0.0,0.3333333333333333,1,2308.0
3,100,66,73.66666666666666,58.0,17.0,67.0,100.0,25.0,54.0,0.0,0.3333333333333333,0.3333333333333333,0.0,0.3333333333333333,1,2814.0
3,100,67,28.666666666666664,30.0,58.0,73.0,0.0,85.0,13.0,0.0,0.3333333333333333,0.3333333333333333,0.0,0.3333333333333333,1,3275.0
3,100,68,61.0,58.0,50.0,23.0,67.0,1.0,93.0,0.0,0.3333333333333333,0.3333333333333333,0.0,0.3333333333333333,1,2415.0
3,100,69,42.33333333333333,55.0,67.0,22.0,14.0,5.0,91.0,0.0,0.3333333333333333,0.3333333333333333,0.0,0.3333333333333333,1,2164.0
3,100,70,57.99999999999999,55.0,56.0,95.0,47.0,5.0,32.0,0.0,0.3333333333333333,0.3333333333333333,0.0,0.3333333333333333,1,2172.0
3,100,71,55.33333333333333,64.0,22.0,46.0,55.0,31.0,65.0,0.0,0.3333333333333333,0.3333333333333333,0.0,0.3333333333333333,1,2424.0
3,100,72,55.33333333333333,58.0,99.0,31.0,53.0,3.0,82.0,0.0,0.3333333333333333,0.3333333333333333,0.0,0.3333333333333333,1,2870.0
3,100,73,62.66666666666666,58.0,0.0,80.0,67.0,56.0,41.0,0.0,0.3333333333333333,0.3333333333333333,0.0,0.3333333333333333,1,4058.0
3,100,74,63.33333333333333,51.0,72.0,40.0,79.0,85.0,71.0,0.0,0.3333333333333333,0.3333333333333333,0.0,0.3333333333333333,1,4240.0
3,100,75,50.66666666666666,47.0,42.0,23.0,81.0,13.0,48.0,0.0,0.3333333333333333,0.3333333333333333,0.0,0.3333333333333333,1,3235.0
3,100,76,26.0,29.0,61.0,19.0,32.0,86.0,27.0,0.0,0.3333333333333333,0.3333333333333333,0.0,0.3333333333333333,1,2211.0
3,100,77,47.33333333333333,47.0,97.0,19.0,66.0,73.0,57.0,0.0,0.3333333333333333,0.3333333333333333,0.0,0.3333333333333333,1,2255.0
3,100,78,47.66666666666666,47.0,72.0,30.0,86.0,41.0,27.0,0.0,0.3333333333333333,0.3333333333333333,0.0,0.3333333333333333,1,2003.0
3,100,79,80.33333333333333,65.0,31.0,79.0,75.0,60.0,87.0,0.0,0.3333333333333333,0.3333333333333333,0.0,0.3333333333333333,1,3471.0
3,100,80,63.66666666666666,63.0,66.0,94.0,34.0,65.0,63.0,0.0,0.3333333333333333,0.3333333333333333,0.0,0.3333333333333333,1,1964.0
3,100,81,52.66666666666666,54.0,53.0,80.0,16.0,41.0,62.0,0.0,0.3333333333333333,0.3333333333333333,0.0,0.3333333333333333,1,2471.0
3,100,82,61.0,51.0,42.0,83.0,66.0,52.0,34.0,0.0,0.3333333333333333,0.3333333333333333,0.0,0.3333333333333333,1,2150.0
3,100,83,8.666666666666666,12.0,6.0,6.0,5.0,64.0,15.0,0.0,0.3333333333333333,0.3333333333333333,0.0,0.3333333333333333,1,2581.0
3,100,84,86.33333333333331,84.0,22.0,89.0,72.0,97.0,98.0,0.0,0.3333333333333333,0.3333333333333333,0.0,0.3333333333333333,1,3147.0
3,100,85,50.99999999999999,50.0,73.0,44.0,92.0,83.0,17.0,0.0,0.3333333333333333,0.3333333333333333,0.0,0.3333333333333333,1,3651.0
3,100,86,66.33333333333333,66.0,92.0,29.0,74.0,1.0,96.0,0.0,0.3333333333333333,0.3333333333333333,0.0,0.3333333333333333,1,4074.0
3,100,87,61.33333333333333,58.0,9.0,93.0,41.0,13.0,50.0,0.0,0.3333333333333333,0.3333333333333333,0.0,0.3333333333333333,1,4353.000000000058
3,100,88,28.666666666666664,31.0,31.0,46.0,3.0,32.0,37.0,0.0,0.3333333333333333,0.3333333333333333,0.0,0.3333333333333333,1,4587.000000000058
3,100,89,27.0,34.0,90.0,10.0,31.0,1.0,40.0,0.0,0.3333333333333333,0.3333333333333333,0.0,0.3333333333333333,1,2117.0
3,100,90,50.66666666666666,33.0,48.0,26.0,84.0,43.0,42.0,0.0,0.3333333333333333,0.3333333333333333,0.0,0.3333333333333333,1,2263.000000000058
3,100,91,62.33333333333333,74.0,79.0,67.0,20.0,17.0,100.0,0.0,0.3333333333333333,0.3333333333333333,0.0,0.3333333333333333,1,3231.0
3,100,92,50.0,59.0,53.0,25.0,56.0,23.0,69.0,0.0,0.3333333333333333,0.3333333333333333,0.0,0.3333333333333333,1,3487.0
3,100,93,65.0,65.0,33.0,43.0,66.0,86.0,86.0,0.0,0.3333333333333333,0.3333333333333333,0.0,0.3333333333333333,1,5564.000000000116
3,100,94,22.0,35.0,93.0,4.0,12.0,54.0,50.0,0.0,0.3333333333333333,0.3333333333333333,0.0,0.3333333333333333,1,2422.0000000001164
3,100,95,48.66666666666666,67.0,47.0,27.0,89.0,13.0,30.0,0.0,0.3333333333333333,0.3333333333333333,0.0,0.3333333333333333,1,1932.0
3,100,96,73.0,66.0,65.0,89.0,83.0,51.0,47.0,0.0,0.3333333333333333,0.3333333333333333,0.0,0.3333333333333333,1,1585.0
3,100,97,49.66666666666666,68.0,29.0,10.0,98.0,27.0,41.0,0.0,0.3333333333333333,0.3333333333333333,0.0,0.3333333333333333,1,3065.0
3,100,98,42.66666666666666,52.0,56.0,26.0,24.0,50.0,78.0,0.0,0.3333333333333333,0.3333333333333333,0.0,0.3333333333333333,1,2380.999999999884
3,100,99,58.0,45.0,7.0,95.0,27.0,50.0,52.0,0.0,0.3333333333333333,0.3333333333333333,0.0,0.3333333333333333,1,3323.0
3,100,100,66.33333333333333,53.0,42.0,92.0,93.0,64.0,14.0,0.0,0.3333333333333333,0.3333333333333333,0.0,0.3333333333333333,1,1989.0000000001166
4,100,1,48.33333333333333,54.0,32.0,17.0,58.0,27.0,55.0,0.3333333333333333,0.0,0.3333333333333333,0.0,0.3333333333333333,1,20298.024999909103
4,100,2,13.666666666666664,50.0,24.0,71.0,14.0,44.0,3.0,0.3333333333333333,0.0,0.3333333333333333,0.0,0.3333333333333333,1,7667.4950000597155
4,100,3,58.33333333333333,50.0,93.0,81.0,26.0,47.0,56.0,0.3333333333333333,0.0,0.3333333333333333,0.0,0.3333333333333333,1,1576.9899999722836
4,100,4,32.666666666666664,50.0,19.0,98.0,69.0,97.0,10.0,0.3333333333333333,0.0,0.3333333333333333,0.0,0.3333333333333333,1,3730.969999916852
4,100,5,63.33333333333333,50.0,100.0,79.0,16.0,96.0,74.0,0.3333333333333333,0.0,0.3333333333333333,0.0,0.3333333333333333,1,3047.265000059269
4,100,6,45.0,46.0,8.0,57.0,76.0,73.0,51.0,0.3333333333333333,0.0,0.3333333333333333,0.0,0.3333333333333333,1,7271.000000066124
4,100,7,72.33333333333333,60.0,75.0,25.0,87.0,28.0,55.0,0.3333333333333333,0.0,0.3333333333333333,0.0,0.3333333333333333,1,4542.870000004768
4,100,8,90.0,90.0,87.0,48.0,99.0,97.0,84.0,0.3333333333333333,0.0,0.3333333333333333,0.0,0.3333333333333333,1,1694.855000008829
4,100,9,72.0,79.0,96.0,41.0,53.0,34.0,67.0,0.3333333333333333,0.0,0.3333333333333333,0.0,0.3333333333333333,1,3255.820000078529
4,100,10,60.99999999999999,58.0,95.0,95.0,32.0,13.0,56.0,0.3333333333333333,0.0,0.3333333333333333,0.0,0.3333333333333333,1,4206.154999905266
4,100,11,96.33333333333331,97.0,96.0,51.0,95.0,71.0,98.0,0.3333333333333333,0.0,0.3333333333333333,0.0,0.3333333333333333,1,2405.8150000637397
4,100,12,66.66666666666666,69.0,52.0,10.0,93.0,41.0,55.0,0.3333333333333333,0.0,0.3333333333333333,0.0,0.3333333333333333,1,5014.640000066721
4,100,13,34.33333333333333,31.0,69.0,24.0,1.0,82.0,33.0,0.3333333333333333,0.0,0.3333333333333333,0.0,0.3333333333333333,1,3184.815000044182
4,100,14,45.66666666666666,47.0,26.0,5.0,18.0,82.0,93.0,0.3333333333333333,0.0,0.3333333333333333,0.0,0.3333333333333333,1,2490.529999951832
4,100,15,46.33333333333333,36.0,20.0,18.0,94.0,51.0,25.0,0.3333333333333333,0.0,0.3333333333333333,0.0,0.3333333333333333,1,2300.6300000706688
4,100,16,69.66666666666666,75.0,81.0,17.0,50.0,75.0,78.0,0.3333333333333333,0.0,0.3333333333333333,0.0,0.3333333333333333,1,2600.4050000337884
4,100,17,71.0,85.0,51.0,10.0,69.0,54.0,93.0,0.3333333333333333,0.0,0.3333333333333333,0.0,0.3333333333333333,1,2200.985000003129
4,100,18,68.0,79.0,47.0,30.0,66.0,73.0,91.0,0.3333333333333333,0.0,0.3333333333333333,0.0,0.3333333333333333,1,4159.8500000545755
4,100,19,66.0,57.0,43.0,26.0,59.0,36.0,96.0,0.3333333333333333,0.0,0.3333333333333333,0.0,0.3333333333333333,1,5093.690000008792
4,100,20,73.66666666666666,88.0,71.0,99.0,84.0,73.0,66.0,0.3333333333333333,0.0,0.3333333333333333,0.0,0.3333333333333333,1,3650.3500000108033
4,100,21,33.666666666666664,35.0,65.0,41.0,35.0,43.0,1.0,0.3333333333333333,0.0,0.3333333333333333,0.0,0.3333333333333333,1,4609.699999913573
4,100,22,46.66666666666666,83.0,32.0,10.0,99.0,57.0,9.0,0.3333333333333333,0.0,0.3333333333333333,0.0,0.3333333333333333,1,2639.9549999041487
4,100,23,44.33333333333333,51.0,24.0,91.0,67.0,41.0,42.0,0.3333333333333333,0.0,0.3333333333333333,0.0,0.3333333333333333,1,4883.535000029951
4,100,24,65.33333333333333,67.0,76.0,59.0,97.0,92.0,23.0,0.3333333333333333,0.0,0.3333333333333333,0.0,0.3333333333333333,1,3022.4949999246746
4,100,25,62.33333333333333,60.0,49.0,21.0,73.0,25.0,65.0,0.3333333333333333,0.0,0.3333333333333333,0.0,0.3333333333333333,1,5795.864999992774
4,100,26,80.33333333333333,68.0,67.0,97.0,76.0,57.0,98.0,0.3333333333333333,0.0,0.3333333333333333,0.0,0.3333333333333333,1,6348.050000029615
4,100,27,77.33333333333333,78.0,72.0,78.0,74.0,89.0,86.0,0.3333333333333333,0.0,0.3333333333333333,0.0,0.3333333333333333,1,1259.444999974221
4,100,28,51.66666666666666,66.0,17.0,64.0,44.0,98.0,94.0,0.3333333333333333,0.0,0.3333333333333333,0.0,0.3333333333333333,1,2758.5800000233576
4,100,29,31.666666666666664,31.0,6.0,4.0,74.0,79.0,15.0,0.3333333333333333,0.0,0.3333333333333333,0.0,0.3333333333333333,1,2212.7249999903147
4,100,30,55.0,42.0,79.0,66.0,9.0,30.0,77.0,0.3333333333333333,0.0,0.3333333333333333,0.0,0.3333333333333333,1,7295.634999987668
4,100,31,58.99999999999999,43.0,97.0,75.0,34.0,25.0,46.0,0.3333333333333333,0.0,0.3333333333333333,0.0,0.3333333333333333,1,2139.3450000323355
4,100,32,25.666666666666664,27.0,36.0,40.0,8.0,15.0,33.0,0.3333333333333333,0.0,0.3333333333333333,0.0,0.3333333333333333,1,2231.3350000185887
4,100,33,15.666666666666664,20.0,5.0,100.0,32.0,37.0,10.0,0.3333333333333333,0.0,0.3333333333333333,0.0,0.3333333333333333,1,2860.0849999347697
4,100,34,35.66666666666667,24.0,11.0,36.0,72.0,55.0,24.0,0.3333333333333333,0.0,0.3333333333333333,0.0,0.3333333333333333,1,2713.574999943376
4,100,35,49.33333333333332,47.0,25.0,46.0,97.0,93.0,26.0,0.3333333333333333,0.0,0.3333333333333333,0.0,0.3333333333333333,1,2091.024999972433
4,100,36,52.0,56.0,48.0,38.0,43.0,17.0,65.0,0.3333333333333333,0.0,0.3333333333333333,0.0,0.3333333333333333,1,2627.235000021756
4,100,37,50.33333333333333,46.0,11.0,52.0,84.0,27.0,56.0,0.3333333333333333,0.0,0.3333333333333333,0.0,0.3333333333333333,1,4058.929999941029
4,100,38,55.0,36.0,37.0,52.0,50.0,6.0,78.0,0.3333333333333333,0.0,0.3333333333333333,0.0,0.3333333333333333,1,13865.504999994298
4,100,39,52.66666666666666,56.0,85.0,90.0,65.0,58.0,8.0,0.3333333333333333,0.0,0.3333333333333333,0.0,0.3333333333333333,1,2406.3799999421467
4,100,40,31.666666666666664,25.0,41.0,90.0,41.0,4.0,13.0,0.3333333333333333,0.0,0.3333333333333333,0.0,0.3333333333333333,1,4761.2750000553215
4,100,41,57.66666666666666,51.0,9.0,95.0,97.0,7.0,67.0,0.3333333333333333,0.0,0.3333333333333333,0.0,0.3333333333333333,1,3515.26500005275
4,100,42,45.0,62.0,40.0,47.0,74.0,71.0,21.0,0.3333333333333333,0.0,0.3333333333333333,0.0,0.3333333333333333,1,3771.8449999811132
4,100,43,26.666666666666664,26.0,70.0,78.0,9.0,28.0,1.0,0.3333333333333333,0.0,0.3333333333333333,0.0,0.3333333333333333,1,2246.510000084527
4,100,44,32.666666666666664,31.0,3.0,37.0,5.0,98.0,90.0,0.3333333333333333,0.0,0.3333333333333333,0.0,0.3333333333333333,1,2712.385000078939
4,100,45,65.33333333333333,41.0,97.0,22.0,90.0,24.0,9.0,0.3333333333333333,0.0,0.3333333333333333,0.0,0.3333333333333333,1,8149.315000046045
4,100,46,76.0,83.0,82.0,80.0,56.0,83.0,90.0,0.3333333333333333,0.0,0.3333333333333333,0.0,0.3333333333333333,1,8438.47499997355
4,100,47,32.666666666666664,25.0,25.0,65.0,21.0,66.0,52.0,0.3333333333333333,0.0,0.3333333333333333,0.0,0.3333333333333333,1,9351.699999999257
4,100,48,58.66666666666666,49.0,77.0,10.0,26.0,74.0,73.0,0.3333333333333333,0.0,0.3333333333333333,0.0,0.3333333333333333,1,2745.615000021644
4,100,49,76.33333333333333,80.0,97.0,2.0,88.0,56.0,44.0,0.3333333333333333,0.0,0.3333333333333333,0.0,0.3333333333333333,1,5210.119999945165
4,100,50,76.0,65.0,46.0,43.0,98.0,16.0,84.0,0.3333333333333333,0.0,0.3333333333333333,0.0,0.3333333333333333,1,2523.714999901131
4,100,51,57.33333333333333,59.0,53.0,21.0,88.0,68.0,31.0,0.3333333333333333,0.0,0.3333333333333333,0.0,0.3333333333333333,1,2258.7499999208376
4,100,52,47.0,53.0,37.0,54.0,36.0,69.0,68.0,0.3333333333333333,0.0,0.3333333333333333,0.0,0.3333333333333333,1,4880.710000055842
4,100,53,29.0,13.0,0.0,68.0,40.0,97.0,47.0,0.3333333333333333,0.0,0.3333333333333333,0.0,0.3333333333333333,1,7153.085000114515
4,100,54,43.66666666666666,39.0,14.0,6.0,61.0,22.0,56.0,0.3333333333333333,0.0,0.3333333333333333,0.0,0.3333333333333333,1,5127.040000050329
4,100,55,53.66666666666666,53.0,73.0,71.0,23.0,2.0,65.0,0.3333333333333333,0.0,0.3333333333333333,0.0,0.3333333333333333,1,5299.055000068621
4,100,56,65.66666666666666,78.0,8.0,44.0,91.0,93.0,98.0,0.3333333333333333,0.0,0.3333333333333333,0.0,0.3333333333333333,1,3607.4200000148267
4,100,57,65.66666666666666,59.0,38.0,80.0,100.0,39.0,59.0,0.3333333333333333,0.0,0.3333333333333333,0.0,0.3333333333333333,1,2424.2599999997765
4,100,58,50.66666666666666,45.0,57.0,22.0,30.0,24.0,65.0,0.3333333333333333,0.0,0.3333333333333333,0.0,0.3333333333333333,1,2823.78500001505
4,100,59,50.33333333333333,42.0,90.0,72.0,43.0,35.0,18.0,0.3333333333333333,0.0,0.3333333333333333,0.0,0.3333333333333333,1,6016.444999957457
4,100,60,21.0,22.0,13.0,64.0,34.0,68.0,16.0,0.3333333333333333,0.0,0.3333333333333333,0.0,0.3333333333333333,1,3207.7549999812622
4,100,61,87.66666666666666,89.0,90.0,99.0,78.0,33.0,95.0,0.3333333333333333,0.0,0.3333333333333333,0.0,0.3333333333333333,1,4170.750000048429
4,100,62,35.0,21.0,61.0,33.0,16.0,57.0,28.0,0.3333333333333333,0.0,0.3333333333333333,0.0,0.3333333333333333,1,2776.2099999235943
4,100,63,68.0,75.0,76.0,49.0,92.0,24.0,36.0,0.3333333333333333,0.0,0.3333333333333333,0.0,0.3333333333333333,1,10819.64000000153
4,100,64,26.0,28.0,10.0,58.0,30.0,72.0,38.0,0.3333333333333333,0.0,0.3333333333333333,0.0,0.3333333333333333,1,9123.045000014828
4,100,65,34.0,20.0,4.0,53.0,76.0,8.0,22.0,0.3333333333333333,0.0,0.3333333333333333,0.0,0.3333333333333333,1,3328.534999978729
4,100,66,38.66666666666666,26.0,78.0,15.0,26.0,48.0,12.0,0.3333333333333333,0.0,0.3333333333333333,0.0,0.3333333333333333,1,2178.0450000660494
4,100,67,64.66666666666666,53.0,50.0,97.0,74.0,33.0,70.0,0.3333333333333333,0.0,0.3333333333333333,0.0,0.3333333333333333,1,1779.8099999781698
4,100,68,64.66666666666666,65.0,82.0,29.0,63.0,31.0,49.0,0.3333333333333333,0.0,0.3333333333333333,0.0,0.3333333333333333,1,3550.619999994524
4,100,69,52.33333333333333,50.0,53.0,97.0,67.0,19.0,37.0,0.3333333333333333,0.0,0.3333333333333333,0.0,0.3333333333333333,1,3297.630000044592
4,100,70,35.0,33.0,28.0,69.0,33.0,33.0,44.0,0.3333333333333333,0.0,0.3333333333333333,0.0,0.3333333333333333,1,2855.444999993779
4,100,71,65.0,62.0,21.0,23.0,83.0,51.0,91.0,0.3333333333333333,0.0,0.3333333333333333,0.0,0.3333333333333333,1,7669.289999990724
4,100,72,43.33333333333333,45.0,2.0,23.0,34.0,10.0,94.0,0.3333333333333333,0.0,0.3333333333333333,0.0,0.3333333333333333,1,5453.4750001039365
4,100,73,73.33333333333333,71.0,70.0,37.0,98.0,54.0,52.0,0.3333333333333333,0.0,0.3333333333333333,0.0,0.3333333333333333,1,3049.200000008568
4,100,74,26.666666666666664,23.0,3.0,17.0,56.0,33.0,21.0,0.3333333333333333,0.0,0.3333333333333333,0.0,0.3333333333333333,1,3855.8399999747053
4,100,75,41.0,43.0,11.0,24.0,30.0,82.0,82.0,0.3333333333333333,0.0,0.3333333333333333,0.0,0.3333333333333333,1,2791.310000000521
4,100,76,23.666666666666664,27.0,35.0,76.0,33.0,77.0,3.0,0.3333333333333333,0.0,0.3333333333333333,0.0,0.3333333333333333,1,4449.074999894947
4,100,77,26.0,22.0,47.0,49.0,7.0,37.0,24.0,0.3333333333333333,0.0,0.3333333333333333,0.0,0.3333333333333333,1,3129.244999960065
4,100,78,37.333333333333336,33.0,13.0,13.0,9.0,2.0,90.0,0.3333333333333333,0.0,0.3333333333333333,0.0,0.3333333333333333,1,3671.7199999839063
4,100,79,37.66666666666666,35.0,26.0,18.0,51.0,44.0,36.0,0.3333333333333333,0.0,0.3333333333333333,0.0,0.3333333333333333,1,3436.6000000154604
4,100,80,44.33333333333333,37.0,29.0,44.0,100.0,11.0,4.0,0.3333333333333333,0.0,0.3333333333333333,0.0,0.3333333333333333,1,3030.839999904856
4,100,81,23.666666666666664,19.0,1.0,22.0,54.0,52.0,16.0,0.3333333333333333,0.0,0.3333333333333333,0.0,0.3333333333333333,1,4068.48000001628
4,100,82,91.33333333333331,94.0,100.0,88.0,86.0,96.0,88.0,0.3333333333333333,0.0,0.3333333333333333,0.0,0.3333333333333333,1,3645.865000085905
4,100,83,22.666666666666664,18.0,10.0,28.0,3.0,27.0,55.0,0.3333333333333333,0.0,0.3333333333333333,0.0,0.3333333333333333,1,2684.9349999101833
4,100,84,61.66666666666666,61.0,35.0,0.0,92.0,39.0,58.0,0.3333333333333333,0.0,0.3333333333333333,0.0,0.3333333333333333,1,6182.0300000254065
4,100,85,42.33333333333333,37.0,35.0,59.0,72.0,71.0,20.0,0.3333333333333333,0.0,0.3333333333333333,0.0,0.3333333333333333,1,3830.244999960996
4,100,86,77.66666666666666,78.0,90.0,53.0,54.0,37.0,89.0,0.3333333333333333,0.0,0.3333333333333333,0.0,0.3333333333333333,1,2535.174999968149
4,100,87,44.66666666666666,45.0,14.0,3.0,21.0,84.0,99.0,0.3333333333333333,0.0,0.3333333333333333,0.0,0.3333333333333333,1,2738.684999989345
4,100,88,62.66666666666666,68.0,93.0,73.0,24.0,78.0,71.0,0.3333333333333333,0.0,0.3333333333333333,0.0,0.3333333333333333,1,11806.119999964722
4,100,89,61.33333333333333,61.0,29.0,13.0,93.0,78.0,62.0,0.3333333333333333,0.0,0.3333333333333333,0.0,0.3333333333333333,1,4545.330000109971
4,100,90,61.66666666666666,66.0,83.0,69.0,85.0,90.0,17.0,0.3333333333333333,0.0,0.3333333333333333,0.0,0.3333333333333333,1,6184.580000001006
4,100,91,54.0,53.0,33.0,50.0,66.0,20.0,63.0,0.3333333333333333,0.0,0.3333333333333333,0.0,0.3333333333333333,1,3055.3300000028685
4,100,92,32.666666666666664,31.0,14.0,51.0,45.0,15.0,39.0,0.3333333333333333,0.0,0.3333333333333333,0.0,0.3333333333333333,1,2222.234999993816
4,100,93,24.33333333333333,21.0,14.0,30.0,24.0,3.0,35.0,0.3333333333333333,0.0,0.3333333333333333,0.0,0.3333333333333333,1,2732.2799999965355
4,100,94,67.0,67.0,9.0,38.0,100.0,88.0,92.0,0.3333333333333333,0.0,0.3333333333333333,0.0,0.3333333333333333,1,2161.070000031032
4,100,95,29.0,32.0,20.0,81.0,47.0,56.0,20.0,0.3333333333333333,0.0,0.3333333333333333,0.0,0.3333333333333333,1,4613.11499995645
4,100,96,44.33333333333333,42.0,38.0,58.0,7.0,69.0,88.0,0.3333333333333333,0.0,0.3333333333333333,0.0,0.3333333333333333,1,2954.155000043101
4,100,97,47.66666666666666,49.0,63.0,10.0,4.0,58.0,76.0,0.3333333333333333,0.0,0.3333333333333333,0.0,0.3333333333333333,1,9624.635000014678
4,100,98,18.33333333333333,20.0,36.0,39.0,13.0,54.0,6.0,0.3333333333333333,0.0,0.3333333333333333,0.0,0.3333333333333333,1,2688.12499998603
4,100,99,40.66666666666666,35.0,10.0,90.0,61.0,40.0,51.0,0.3333333333333333,0.0,0.3333333333333333,0.0,0.3333333333333333,1,2652.070000069216
4,100,100,69.0,72.0,33.0,31.0,89.0,94.0,85.0,0.3333333333333333,0.0,0.3333333333333333,0.0,0.3333333333333333,1,2959.8499999847268
5,100,1,76.0,35.0,27.0,80.0,59.0,89.0,19.0,0.0,0.3333333333333333,0.3333333333333333,0.3333333333333333,0.0,1,12611.694999999992
5,100,2,39.0,75.0,62.0,61.0,26.0,30.0,54.0,0.0,0.3333333333333333,0.3333333333333333,0.3333333333333333,0.0,1,2336.5800000000017
5,100,3,77.66666666666666,57.0,98.0,80.0,81.0,72.0,10.0,0.0,0.3333333333333333,0.3333333333333333,0.3333333333333333,0.0,1,1635.1250000000146
5,100,4,84.66666666666666,86.0,96.0,75.0,99.0,80.0,54.0,0.0,0.3333333333333333,0.3333333333333333,0.3333333333333333,0.0,1,892.815000000017
5,100,5,36.0,32.0,18.0,67.0,24.0,17.0,71.0,0.0,0.3333333333333333,0.3333333333333333,0.3333333333333333,0.0,1,1229.1649999999934
5,100,6,88.33333333333331,16.0,15.0,70.0,100.0,95.0,18.0,0.0,0.3333333333333333,0.3333333333333333,0.3333333333333333,0.0,1,1057.5650000000023
5,100,7,68.33333333333333,49.0,48.0,95.0,29.0,81.0,45.0,0.0,0.3333333333333333,0.3333333333333333,0.3333333333333333,0.0,1,1334.444999999978
5,100,8,48.0,68.0,84.0,5.0,51.0,88.0,91.0,0.0,0.3333333333333333,0.3333333333333333,0.3333333333333333,0.0,1,1039.3899999999994
5,100,9,34.0,56.0,62.0,28.0,27.0,47.0,54.0,0.0,0.3333333333333333,0.3333333333333333,0.3333333333333333,0.0,1,1211.4300000000076
5,100,10,45.0,47.0,66.0,95.0,12.0,28.0,98.0,0.0,0.3333333333333333,0.3333333333333333,0.3333333333333333,0.0,1,1026.9850000000297
5,100,11,42.0,49.0,72.0,48.0,33.0,45.0,52.0,0.0,0.3333333333333333,0.3333333333333333,0.3333333333333333,0.0,1,1059.854999999996
5,100,12,30.33333333333333,57.0,23.0,1.0,80.0,10.0,17.0,0.0,0.3333333333333333,0.3333333333333333,0.3333333333333333,0.0,1,2181.89999999998
5,100,13,53.66666666666666,63.0,97.0,43.0,39.0,79.0,38.0,0.0,0.3333333333333333,0.3333333333333333,0.3333333333333333,0.0,1,1838.4500000000266
5,100,14,63.33333333333333,51.0,71.0,61.0,90.0,39.0,68.0,0.0,0.3333333333333333,0.3333333333333333,0.3333333333333333,0.0,1,766.6349999999803
5,100,15,18.33333333333333,38.0,46.0,29.0,2.0,24.0,41.0,0.0,0.3333333333333333,0.3333333333333333,0.3333333333333333,0.0,1,1427.2199999999718
5,100,16,54.0,28.0,32.0,62.0,33.0,67.0,93.0,0.0,0.3333333333333333,0.3333333333333333,0.3333333333333333,0.0,1,1417.4850000000154
5,100,17,37.0,28.0,6.0,65.0,8.0,38.0,62.0,0.0,0.3333333333333333,0.3333333333333333,0.3333333333333333,0.0,1,1296.2600000000093
5,100,18,48.0,38.0,54.0,27.0,23.0,94.0,50.0,0.0,0.3333333333333333,0.3333333333333333,0.3333333333333333,0.0,1,1191.5050000000047
5,100,19,34.666666666666664,52.0,85.0,16.0,75.0,13.0,20.0,0.0,0.3333333333333333,0.3333333333333333,0.3333333333333333,0.0,1,1519.0049999999756
5,100,20,76.33333333333333,34.0,38.0,80.0,64.0,85.0,6.0,0.0,0.3333333333333333,0.3333333333333333,0.3333333333333333,0.0,1,3263.8499999999767
5,100,21,52.66666666666666,53.0,95.0,45.0,74.0,39.0,49.0,0.0,0.3333333333333333,0.3333333333333333,0.3333333333333333,0.0,1,1237.0950000000012
5,100,22,19.33333333333333,57.0,95.0,13.0,13.0,32.0,68.0,0.0,0.3333333333333333,0.3333333333333333,0.3333333333333333,0.0,1,2393.304999999993
5,100,23,63.33333333333333,41.0,71.0,92.0,44.0,54.0,24.0,0.0,0.3333333333333333,0.3333333333333333,0.3333333333333333,0.0,1,1442.3450000000012
5,100,24,65.66666666666666,49.0,17.0,84.0,37.0,76.0,72.0,0.0,0.3333333333333333,0.3333333333333333,0.3333333333333333,0.0,1,2049.5650000000314
5,100,25,33.33333333333333,11.0,9.0,37.0,2.0,61.0,30.0,0.0,0.3333333333333333,0.3333333333333333,0.3333333333333333,0.0,1,2244.719999999972
5,100,26,33.666666666666664,64.0,82.0,2.0,91.0,8.0,26.0,0.0,0.3333333333333333,0.3333333333333333,0.3333333333333333,0.0,1,1796.429999999993
5,100,27,65.0,54.0,59.0,88.0,43.0,64.0,97.0,0.0,0.3333333333333333,0.3333333333333333,0.3333333333333333,0.0,1,1295.3000000000175
5,100,28,55.66666666666666,28.0,17.0,28.0,74.0,65.0,38.0,0.0,0.3333333333333333,0.3333333333333333,0.3333333333333333,0.0,1,1738.989999999991
5,100,29,49.33333333333334,56.0,40.0,75.0,57.0,16.0,82.0,0.0,0.3333333333333333,0.3333333333333333,0.3333333333333333,0.0,1,1145.304999999993
5,100,30,69.66666666666666,65.0,25.0,59.0,80.0,70.0,22.0,0.0,0.3333333333333333,0.3333333333333333,0.3333333333333333,0.0,1,1807.7000000000119
5,100,31,51.66666666666666,71.0,74.0,16.0,42.0,97.0,23.0,0.0,0.3333333333333333,0.3333333333333333,0.3333333333333333,0.0,1,1883.234999999957
5,100,32,81.0,56.0,79.0,72.0,81.0,90.0,14.0,0.0,0.3333333333333333,0.3333333333333333,0.3333333333333333,0.0,1,2946.500000000029
5,100,33,51.33333333333333,68.0,6.0,82.0,69.0,3.0,96.0,0.0,0.3333333333333333,0.3333333333333333,0.3333333333333333,0.0,1,1260.084999999992
5,100,34,57.33333333333333,63.0,95.0,76.0,21.0,75.0,61.0,0.0,0.3333333333333333,0.3333333333333333,0.3333333333333333,0.0,1,979.6600000000327
5,100,35,44.99999999999999,63.0,37.0,88.0,24.0,23.0,22.0,0.0,0.3333333333333333,0.3333333333333333,0.3333333333333333,0.0,1,1100.304999999993
5,100,36,37.66666666666666,46.0,91.0,14.0,55.0,44.0,45.0,0.0,0.3333333333333333,0.3333333333333333,0.3333333333333333,0.0,1,2622.0450000000133
5,100,37,61.99999999999999,52.0,15.0,65.0,32.0,89.0,27.0,0.0,0.3333333333333333,0.3333333333333333,0.3333333333333333,0.0,1,2867.8550000000105
5,100,38,58.66666666666666,50.0,41.0,57.0,37.0,82.0,32.0,0.0,0.3333333333333333,0.3333333333333333,0.3333333333333333,0.0,1,2893.4000000000524
5,100,39,52.0,47.0,84.0,20.0,72.0,64.0,41.0,0.0,0.3333333333333333,0.3333333333333333,0.3333333333333333,0.0,1,1759.5249999999942
5,100,40,60.33333333333333,43.0,98.0,82.0,85.0,14.0,24.0,0.0,0.3333333333333333,0.3333333333333333,0.3333333333333333,0.0,1,1547.444999999978
5,100,41,56.66666666666666,65.0,31.0,99.0,48.0,23.0,56.0,0.0,0.3333333333333333,0.3333333333333333,0.3333333333333333,0.0,1,2675.6050000000105
5,100,42,33.333333333333336,56.0,29.0,29.0,58.0,13.0,83.0,0.0,0.3333333333333333,0.3333333333333333,0.3333333333333333,0.0,1,1592.1749999999884
5,100,43,48.66666666666666,47.0,59.0,74.0,29.0,43.0,71.0,0.0,0.3333333333333333,0.3333333333333333,0.3333333333333333,0.0,1,1367.8450000000012
5,100,44,38.0,33.0,3.0,27.0,44.0,43.0,31.0,0.0,0.3333333333333333,0.3333333333333333,0.3333333333333333,0.0,1,1240.0299999999988
5,100,45,59.33333333333333,54.0,48.0,86.0,62.0,30.0,99.0,0.0,0.3333333333333333,0.3333333333333333,0.3333333333333333,0.0,1,1621.9700000000596
5,100,46,40.66666666666666,31.0,6.0,9.0,85.0,28.0,27.0,0.0,0.3333333333333333,0.3333333333333333,0.3333333333333333,0.0,1,1319.0199999999895
5,100,47,71.0,43.0,12.0,63.0,59.0,91.0,36.0,0.0,0.3333333333333333,0.3333333333333333,0.3333333333333333,0.0,1,1168.0250000000233
5,100,48,42.33333333333333,43.0,17.0,10.0,89.0,28.0,76.0,0.0,0.3333333333333333,0.3333333333333333,0.3333333333333333,0.0,1,2785.145000000018
5,100,49,33.0,40.0,31.0,19.0,43.0,37.0,64.0,0.0,0.3333333333333333,0.3333333333333333,0.3333333333333333,0.0,1,1610.2350000000442
5,100,50,70.33333333333331,34.0,0.0,97.0,58.0,56.0,78.0,0.0,0.3333333333333333,0.3333333333333333,0.3333333333333333,0.0,1,4337.5900000000265
5,100,51,63.0,59.0,95.0,83.0,96.0,10.0,57.0,0.0,0.3333333333333333,0.3333333333333333,0.3333333333333333,0.0,1,3230.419999999984
5,100,52,40.33333333333333,41.0,56.0,40.0,64.0,17.0,31.0,0.0,0.3333333333333333,0.3333333333333333,0.3333333333333333,0.0,1,2449.1300000000047
5,100,53,61.66666666666666,22.0,7.0,62.0,84.0,39.0,24.0,0.0,0.3333333333333333,0.3333333333333333,0.3333333333333333,0.0,1,7415.515000000072
5,100,54,64.33333333333333,28.0,7.0,30.0,75.0,88.0,58.0,0.0,0.3333333333333333,0.3333333333333333,0.3333333333333333,0.0,1,8289.955000000016
5,100,55,25.33333333333333,46.0,90.0,15.0,39.0,22.0,41.0,0.0,0.3333333333333333,0.3333333333333333,0.3333333333333333,0.0,1,6940.910000000033
5,100,56,66.33333333333333,42.0,62.0,39.0,86.0,74.0,93.0,0.0,0.3333333333333333,0.3333333333333333,0.3333333333333333,0.0,1,1420.2300000000394
5,100,57,53.0,54.0,14.0,67.0,88.0,4.0,81.0,0.0,0.3333333333333333,0.3333333333333333,0.3333333333333333,0.0,1,1769.9349999999977
5,100,58,58.0,51.0,40.0,88.0,17.0,69.0,61.0,0.0,0.3333333333333333,0.3333333333333333,0.3333333333333333,0.0,1,1619.984999999986
5,100,59,45.0,57.0,66.0,21.0,34.0,80.0,95.0,0.0,0.3333333333333333,0.3333333333333333,0.3333333333333333,0.0,1,1992.064999999944
5,100,60,53.0,56.0,73.0,79.0,15.0,65.0,81.0,0.0,0.3333333333333333,0.3333333333333333,0.3333333333333333,0.0,1,4680.455000000016
5,100,61,54.0,53.0,58.0,73.0,49.0,40.0,53.0,0.0,0.3333333333333333,0.3333333333333333,0.3333333333333333,0.0,1,2161.929999999935
5,100,62,48.0,47.0,16.0,51.0,20.0,73.0,59.0,0.0,0.3333333333333333,0.3333333333333333,0.3333333333333333,0.0,1,3429.2799999999693
5,100,63,65.66666666666666,54.0,3.0,98.0,7.0,92.0,81.0,0.0,0.3333333333333333,0.3333333333333333,0.3333333333333333,0.0,1,5307.579999999958
5,100,64,35.33333333333333,59.0,34.0,63.0,20.0,23.0,88.0,0.0,0.3333333333333333,0.3333333333333333,0.3333333333333333,0.0,1,1168.9899999999907
5,100,65,61.66666666666666,47.0,59.0,24.0,81.0,80.0,3.0,0.0,0.3333333333333333,0.3333333333333333,0.3333333333333333,0.0,1,897.4749999999768
5,100,66,43.66666666666666,36.0,75.0,53.0,11.0,67.0,16.0,0.0,0.3333333333333333,0.3333333333333333,0.3333333333333333,0.0,1,2746.040000000037
5,100,67,39.66666666666666,42.0,41.0,37.0,73.0,9.0,72.0,0.0,0.3333333333333333,0.3333333333333333,0.3333333333333333,0.0,1,861.3399999999673
5,100,68,39.66666666666666,42.0,41.0,37.0,73.0,9.0,72.0,0.0,0.3333333333333333,0.3333333333333333,0.3333333333333333,0.0,1,861.3399999999673
5,100,69,71.0,49.0,11.0,100.0,19.0,94.0,20.0,0.0,0.3333333333333333,0.3333333333333333,0.3333333333333333,0.0,1,3475.295000000042
5,100,70,79.0,73.0,84.0,91.0,64.0,82.0,67.0,0.0,0.3333333333333333,0.3333333333333333,0.3333333333333333,0.0,1,3900.6350000000093
5,100,71,36.66666666666666,64.0,0.0,6.0,81.0,23.0,38.0,0.0,0.3333333333333333,0.3333333333333333,0.3333333333333333,0.0,1,2999.960000000021
5,100,72,36.66666666666666,64.0,0.0,6.0,81.0,23.0,38.0,0.0,0.3333333333333333,0.3333333333333333,0.3333333333333333,0.0,1,2999.960000000021
5,100,73,34.666666666666664,62.0,51.0,37.0,48.0,19.0,69.0,0.0,0.3333333333333333,0.3333333333333333,0.3333333333333333,0.0,1,982.1150000000487
5,100,74,43.33333333333333,41.0,69.0,44.0,3.0,83.0,27.0,0.0,0.3333333333333333,0.3333333333333333,0.3333333333333333,0.0,1,916.7750000000232
5,100,75,67.0,66.0,86.0,44.0,97.0,60.0,65.0,0.0,0.3333333333333333,0.3333333333333333,0.3333333333333333,0.0,1,2050.3499999999767
5,100,76,59.33333333333333,53.0,46.0,93.0,35.0,50.0,46.0,0.0,0.3333333333333333,0.3333333333333333,0.3333333333333333,0.0,1,2747.630000000063
5,100,77,75.0,48.0,12.0,91.0,47.0,87.0,41.0,0.0,0.3333333333333333,0.3333333333333333,0.3333333333333333,0.0,1,1494.2250000000352
5,100,78,49.33333333333333,65.0,7.0,70.0,57.0,21.0,97.0,0.0,0.3333333333333333,0.3333333333333333,0.3333333333333333,0.0,1,1588.015000000014
5,100,79,70.0,52.0,48.0,84.0,82.0,44.0,8.0,0.0,0.3333333333333333,0.3333333333333333,0.3333333333333333,0.0,1,2006.8300000000745
5,100,80,26.0,48.0,7.0,65.0,5.0,8.0,65.0,0.0,0.3333333333333333,0.3333333333333333,0.3333333333333333,0.0,1,4164.030000000028
5,100,81,26.0,48.0,7.0,65.0,5.0,8.0,65.0,0.0,0.3333333333333333,0.3333333333333333,0.3333333333333333,0.0,1,4164.030000000028
5,100,82,47.66666666666666,33.0,77.0,18.0,70.0,55.0,60.0,0.0,0.3333333333333333,0.3333333333333333,0.3333333333333333,0.0,1,1476.0449999999835
5,100,83,58.0,35.0,82.0,55.0,49.0,70.0,45.0,0.0,0.3333333333333333,0.3333333333333333,0.3333333333333333,0.0,1,1594.314999999944
5,100,84,60.66666666666666,54.0,25.0,51.0,100.0,31.0,92.0,0.0,0.3333333333333333,0.3333333333333333,0.3333333333333333,0.0,1,1864.619999999937
5,100,85,18.33333333333333,35.0,12.0,36.0,0.0,19.0,37.0,0.0,0.3333333333333333,0.3333333333333333,0.3333333333333333,0.0,1,1615.0249999999648
5,100,86,84.0,47.0,4.0,73.0,87.0,92.0,32.0,0.0,0.3333333333333333,0.3333333333333333,0.3333333333333333,0.0,1,4350.194999999949
5,100,87,48.0,72.0,18.0,43.0,88.0,13.0,68.0,0.0,0.3333333333333333,0.3333333333333333,0.3333333333333333,0.0,1,2106.775000000081
5,100,88,36.66666666666666,63.0,62.0,7.0,81.0,22.0,83.0,0.0,0.3333333333333333,0.3333333333333333,0.3333333333333333,0.0,1,1593.810000000056
5,100,89,43.66666666666666,45.0,68.0,6.0,26.0,99.0,8.0,0.0,0.3333333333333333,0.3333333333333333,0.3333333333333333,0.0,1,1395.8099999999977
5,100,90,52.99999999999999,51.0,80.0,80.0,47.0,32.0,89.0,0.0,0.3333333333333333,0.3333333333333333,0.3333333333333333,0.0,1,3677.5400000000373
5,100,91,30.0,33.0,5.0,30.0,3.0,57.0,46.0,0.0,0.3333333333333333,0.3333333333333333,0.3333333333333333,0.0,1,2203.994999999937
5,100,92,50.33333333333333,62.0,16.0,0.0,57.0,94.0,0.0,0.0,0.3333333333333333,0.3333333333333333,0.3333333333333333,0.0,1,1834.0650000000023
5,100,93,66.33333333333333,61.0,4.0,94.0,67.0,38.0,84.0,0.0,0.3333333333333333,0.3333333333333333,0.3333333333333333,0.0,1,1359.2550000000626
5,100,94,54.66666666666666,50.0,40.0,57.0,35.0,72.0,22.0,0.0,0.3333333333333333,0.3333333333333333,0.3333333333333333,0.0,1,1396.8499999999767
5,100,95,42.33333333333333,49.0,4.0,22.0,82.0,23.0,53.0,0.0,0.3333333333333333,0.3333333333333333,0.3333333333333333,0.0,1,2892.9400000000605
5,100,96,78.66666666666666,55.0,6.0,89.0,91.0,56.0,53.0,0.0,0.3333333333333333,0.3333333333333333,0.3333333333333333,0.0,1,2501.585000000021
5,100,97,54.66666666666666,63.0,0.0,85.0,72.0,7.0,87.0,0.0,0.3333333333333333,0.3333333333333333,0.3333333333333333,0.0,1,3201.380000000121
5,100,98,31.33333333333333,53.0,78.0,48.0,33.0,13.0,86.0,0.0,0.3333333333333333,0.3333333333333333,0.3333333333333333,0.0,1,1260.0599999999977
5,100,99,57.33333333333333,46.0,65.0,53.0,84.0,35.0,5.0,0.0,0.3333333333333333,0.3333333333333333,0.3333333333333333,0.0,1,981.2000000000116
5,100,100,64.66666666666666,62.0,96.0,84.0,18.0,92.0,60.0,0.0,0.3333333333333333,0.3333333333333333,0.3333333333333333,0.0,1,3982.984999999986
6,100,1,25.33333333333333,32.0,74.0,23.0,30.0,61.0,23.0,0.0,0.3333333333333333,0.3333333333333333,0.0,0.3333333333333333,1,9686.774999951012
6,100,2,40.66666666666666,52.0,87.0,22.0,48.0,32.0,52.0,0.0,0.3333333333333333,0.3333333333333333,0.0,0.3333333333333333,1,15626.385000010489
6,100,3,37.333333333333336,90.0,18.0,15.0,4.0,94.0,93.0,0.0,0.3333333333333333,0.3333333333333333,0.0,0.3333333333333333,1,8628.610000014305
6,100,4,19.333333333333336,75.0,83.0,27.0,1.0,61.0,30.0,0.0,0.3333333333333333,0.3333333333333333,0.0,0.3333333333333333,1,10080.205000005662
6,100,5,33.33333333333333,55.0,88.0,64.0,25.0,25.0,11.0,0.0,0.3333333333333333,0.3333333333333333,0.0,0.3333333333333333,1,3658.414999954401
6,100,6,22.666666666666664,23.0,87.0,50.0,6.0,83.0,12.0,0.0,0.3333333333333333,0.3333333333333333,0.0,0.3333333333333333,1,6522.895000001881
6,100,7,88.33333333333331,76.0,2.0,100.0,100.0,67.0,65.0,0.0,0.3333333333333333,0.3333333333333333,0.0,0.3333333333333333,1,4137.044999981299
6,100,8,51.66666666666666,63.0,29.0,84.0,31.0,54.0,40.0,0.0,0.3333333333333333,0.3333333333333333,0.0,0.3333333333333333,1,2066.11499999417
6,100,9,58.33333333333333,43.0,11.0,34.0,44.0,88.0,97.0,0.0,0.3333333333333333,0.3333333333333333,0.0,0.3333333333333333,1,1771.2500000488944
6,100,10,42.33333333333333,35.0,30.0,48.0,40.0,14.0,39.0,0.0,0.3333333333333333,0.3333333333333333,0.0,0.3333333333333333,1,2071.324999968056
6,100,11,56.33333333333334,72.0,57.0,96.0,63.0,80.0,10.0,0.0,0.3333333333333333,0.3333333333333333,0.0,0.3333333333333333,1,3324.625000008382
6,100,12,76.66666666666666,84.0,41.0,48.0,97.0,14.0,85.0,0.0,0.3333333333333333,0.3333333333333333,0.0,0.3333333333333333,1,1468.4399999678135
6,100,13,58.99999999999999,50.0,47.0,56.0,26.0,62.0,95.0,0.0,0.3333333333333333,0.3333333333333333,0.0,0.3333333333333333,1,3495.2199999825098
6,100,14,75.66666666666666,93.0,54.0,36.0,94.0,68.0,97.0,0.0,0.3333333333333333,0.3333333333333333,0.0,0.3333333333333333,1,1854.9099999945608
6,100,15,43.66666666666666,39.0,14.0,45.0,4.0,8.0,82.0,0.0,0.3333333333333333,0.3333333333333333,0.0,0.3333333333333333,1,5675.374999991617
6,100,16,22.33333333333333,27.0,89.0,23.0,30.0,42.0,14.0,0.0,0.3333333333333333,0.3333333333333333,0.0,0.3333333333333333,1,3698.3400000026454
6,100,17,46.33333333333333,39.0,29.0,29.0,16.0,68.0,94.0,0.0,0.3333333333333333,0.3333333333333333,0.0,0.3333333333333333,1,3014.910000027157
6,100,18,66.0,66.0,69.0,56.0,90.0,62.0,52.0,0.0,0.3333333333333333,0.3333333333333333,0.0,0.3333333333333333,1,2604.6250000363216
6,100,19,44.66666666666666,46.0,28.0,97.0,36.0,49.0,1.0,0.0,0.3333333333333333,0.3333333333333333,0.0,0.3333333333333333,1,2874.074999999721
6,100,20,59.33333333333333,53.0,18.0,76.0,40.0,80.0,62.0,0.0,0.3333333333333333,0.3333333333333333,0.0,0.3333333333333333,1,3555.980000004638
6,100,21,29.0,40.0,47.0,30.0,30.0,93.0,27.0,0.0,0.3333333333333333,0.3333333333333333,0.0,0.3333333333333333,1,1486.4449999877252
6,100,22,54.66666666666666,47.0,34.0,69.0,50.0,74.0,45.0,0.0,0.3333333333333333,0.3333333333333333,0.0,0.3333333333333333,1,1523.0699999956414
6,100,23,38.33333333333333,24.0,79.0,29.0,9.0,13.0,77.0,0.0,0.3333333333333333,0.3333333333333333,0.0,0.3333333333333333,1,3042.5549999927175
6,100,24,43.66666666666666,55.0,41.0,12.0,91.0,58.0,28.0,0.0,0.3333333333333333,0.3333333333333333,0.0,0.3333333333333333,1,2596.470000047703
6,100,25,25.666666666666664,39.0,31.0,20.0,31.0,82.0,26.0,0.0,0.3333333333333333,0.3333333333333333,0.0,0.3333333333333333,1,2357.755000004545
6,100,26,52.33333333333333,77.0,61.0,90.0,40.0,93.0,27.0,0.0,0.3333333333333333,0.3333333333333333,0.0,0.3333333333333333,1,5153.509999974631
6,100,27,50.0,49.0,33.0,79.0,40.0,100.0,31.0,0.0,0.3333333333333333,0.3333333333333333,0.0,0.3333333333333333,1,4259.7700000042105
6,100,28,52.99999999999999,38.0,40.0,62.0,32.0,45.0,65.0,0.0,0.3333333333333333,0.3333333333333333,0.0,0.3333333333333333,1,3823.24499997776
6,100,29,56.66666666666666,58.0,5.0,71.0,87.0,56.0,12.0,0.0,0.3333333333333333,0.3333333333333333,0.0,0.3333333333333333,1,2920.2550000045453
6,100,30,53.33333333333333,26.0,34.0,35.0,29.0,99.0,96.0,0.0,0.3333333333333333,0.3333333333333333,0.0,0.3333333333333333,1,3816.6399999754494
6,100,31,62.66666666666666,77.0,93.0,41.0,83.0,94.0,64.0,0.0,0.3333333333333333,0.3333333333333333,0.0,0.3333333333333333,1,3036.534999962896
6,100,32,80.66666666666666,36.0,52.0,100.0,42.0,1.0,100.0,0.0,0.3333333333333333,0.3333333333333333,0.0,0.3333333333333333,1,5088.850000000093
6,100,33,67.33333333333333,51.0,95.0,47.0,69.0,51.0,86.0,0.0,0.3333333333333333,0.3333333333333333,0.0,0.3333333333333333,1,3550.359999993816
6,100,34,83.33333333333333,84.0,17.0,65.0,85.0,97.0,100.0,0.0,0.3333333333333333,0.3333333333333333,0.0,0.3333333333333333,1,2489.059999992605
6,100,35,53.0,52.0,52.0,77.0,2.0,39.0,80.0,0.0,0.3333333333333333,0.3333333333333333,0.0,0.3333333333333333,1,4687.525000015739
6,100,36,58.33333333333333,59.0,61.0,87.0,43.0,92.0,45.0,0.0,0.3333333333333333,0.3333333333333333,0.0,0.3333333333333333,1,4628.549999964889
6,100,37,49.33333333333333,47.0,23.0,89.0,54.0,17.0,5.0,0.0,0.3333333333333333,0.3333333333333333,0.0,0.3333333333333333,1,3592.2349999891594
6,100,38,47.0,56.0,86.0,32.0,85.0,46.0,24.0,0.0,0.3333333333333333,0.3333333333333333,0.0,0.3333333333333333,1,2560.1599999936293
6,100,39,68.33333333333333,61.0,34.0,97.0,71.0,9.0,37.0,0.0,0.3333333333333333,0.3333333333333333,0.0,0.3333333333333333,1,2984.84000004828
6,100,40,62.33333333333333,63.0,56.0,83.0,54.0,41.0,50.0,0.0,0.3333333333333333,0.3333333333333333,0.0,0.3333333333333333,1,2713.165000022855
6,100,41,66.0,55.0,14.0,28.0,71.0,29.0,99.0,0.0,0.3333333333333333,0.3333333333333333,0.0,0.3333333333333333,1,2744.234999991022
6,100,42,51.66666666666666,54.0,72.0,81.0,43.0,49.0,31.0,0.0,0.3333333333333333,0.3333333333333333,0.0,0.3333333333333333,1,3561.0350000206377
6,100,43,31.33333333333333,44.0,27.0,5.0,10.0,55.0,79.0,0.0,0.3333333333333333,0.3333333333333333,0.0,0.3333333333333333,1,5251.545000006445
6,100,44,42.66666666666666,36.0,43.0,61.0,43.0,31.0,24.0,0.0,0.3333333333333333,0.3333333333333333,0.0,0.3333333333333333,1,4300.8300000219615
6,100,45,62.66666666666666,69.0,80.0,44.0,95.0,85.0,49.0,0.0,0.3333333333333333,0.3333333333333333,0.0,0.3333333333333333,1,3878.6499999696393
6,100,46,48.33333333333333,45.0,71.0,80.0,7.0,11.0,58.0,0.0,0.3333333333333333,0.3333333333333333,0.0,0.3333333333333333,1,7505.340000032447
6,100,47,69.33333333333333,68.0,12.0,93.0,86.0,73.0,29.0,0.0,0.3333333333333333,0.3333333333333333,0.0,0.3333333333333333,1,2202.545000007376
6,100,48,55.66666666666666,53.0,11.0,2.0,68.0,15.0,97.0,0.0,0.3333333333333333,0.3333333333333333,0.0,0.3333333333333333,1,3657.104999991134
6,100,49,56.66666666666666,55.0,56.0,44.0,76.0,18.0,50.0,0.0,0.3333333333333333,0.3333333333333333,0.0,0.3333333333333333,1,2706.1049999902025
6,100,50,65.0,59.0,54.0,96.0,10.0,38.0,89.0,0.0,0.3333333333333333,0.3333333333333333,0.0,0.3333333333333333,1,3601.680000021588
6,100,51,37.33333333333333,54.0,90.0,39.0,48.0,90.0,25.0,0.0,0.3333333333333333,0.3333333333333333,0.0,0.3333333333333333,1,2819.8149999952875
6,100,52,45.66666666666666,46.0,62.0,43.0,40.0,92.0,54.0,0.0,0.3333333333333333,0.3333333333333333,0.0,0.3333333333333333,1,10264.079999993555
6,100,53,54.66666666666666,51.0,61.0,87.0,26.0,50.0,51.0,0.0,0.3333333333333333,0.3333333333333333,0.0,0.3333333333333333,1,2943.064999999479
6,100,54,69.0,54.0,65.0,89.0,18.0,53.0,100.0,0.0,0.3333333333333333,0.3333333333333333,0.0,0.3333333333333333,1,7810.189999989233
6,100,55,67.0,67.0,75.0,97.0,24.0,17.0,80.0,0.0,0.3333333333333333,0.3333333333333333,0.0,0.3333333333333333,1,3894.6449999930333
6,100,56,92.0,89.0,63.0,97.0,97.0,39.0,82.0,0.0,0.3333333333333333,0.3333333333333333,0.0,0.3333333333333333,1,4033.025000011549
6,100,57,67.66666666666666,74.0,3.0,76.0,36.0,52.0,91.0,0.0,0.3333333333333333,0.3333333333333333,0.0,0.3333333333333333,1,6898.745000013149
6,100,58,83.0,82.0,91.0,80.0,74.0,24.0,95.0,0.0,0.3333333333333333,0.3333333333333333,0.0,0.3333333333333333,1,3326.739999989513
6,100,59,57.33333333333333,67.0,50.0,61.0,25.0,73.0,86.0,0.0,0.3333333333333333,0.3333333333333333,0.0,0.3333333333333333,1,6201.800000038929
6,100,60,21.0,19.0,19.0,51.0,4.0,16.0,8.0,0.0,0.3333333333333333,0.3333333333333333,0.0,0.3333333333333333,1,8311.805000004824
6,100,61,45.33333333333333,34.0,16.0,29.0,92.0,33.0,15.0,0.0,0.3333333333333333,0.3333333333333333,0.0,0.3333333333333333,1,2089.4850000040606
6,100,62,37.66666666666666,68.0,21.0,19.0,1.0,88.0,93.0,0.0,0.3333333333333333,0.3333333333333333,0.0,0.3333333333333333,1,2617.199999978766
6,100,63,40.66666666666666,46.0,67.0,12.0,63.0,100.0,47.0,0.0,0.3333333333333333,0.3333333333333333,0.0,0.3333333333333333,1,4065.1850000140253
6,100,64,74.33333333333333,60.0,55.0,70.0,88.0,95.0,65.0,0.0,0.3333333333333333,0.3333333333333333,0.0,0.3333333333333333,1,3223.0599999893457
6,100,65,64.0,64.0,59.0,59.0,45.0,18.0,88.0,0.0,0.3333333333333333,0.3333333333333333,0.0,0.3333333333333333,1,4511.579999991227
6,100,66,13.666666666666664,14.0,24.0,23.0,15.0,79.0,3.0,0.0,0.3333333333333333,0.3333333333333333,0.0,0.3333333333333333,1,2593.9150000340305
6,100,67,67.33333333333333,49.0,55.0,32.0,84.0,4.0,86.0,0.0,0.3333333333333333,0.3333333333333333,0.0,0.3333333333333333,1,2820.554999983869
6,100,68,51.33333333333333,70.0,77.0,14.0,72.0,80.0,68.0,0.0,0.3333333333333333,0.3333333333333333,0.0,0.3333333333333333,1,3716.3350000046194
6,100,69,50.66666666666666,34.0,14.0,40.0,45.0,86.0,67.0,0.0,0.3333333333333333,0.3333333333333333,0.0,0.3333333333333333,1,6838.519999990239
6,100,70,42.0,37.0,34.0,78.0,9.0,42.0,39.0,0.0,0.3333333333333333,0.3333333333333333,0.0,0.3333333333333333,1,5261.6699999780385
6,100,71,19.666666666666664,18.0,70.0,24.0,17.0,4.0,18.0,0.0,0.3333333333333333,0.3333333333333333,0.0,0.3333333333333333,1,3107.2949999943376
6,100,72,42.33333333333333,37.0,90.0,65.0,26.0,17.0,36.0,0.0,0.3333333333333333,0.3333333333333333,0.0,0.3333333333333333,1,2535.2149999816897
6,100,73,49.0,47.0,52.0,45.0,96.0,87.0,6.0,0.0,0.3333333333333333,0.3333333333333333,0.0,0.3333333333333333,1,2624.615000037011
6,100,74,72.0,70.0,58.0,79.0,38.0,91.0,99.0,0.0,0.3333333333333333,0.3333333333333333,0.0,0.3333333333333333,1,3136.505000002217
6,100,75,32.33333333333333,26.0,28.0,42.0,34.0,68.0,21.0,0.0,0.3333333333333333,0.3333333333333333,0.0,0.3333333333333333,1,10710.00500000082
6,100,76,61.33333333333333,55.0,23.0,64.0,89.0,49.0,31.0,0.0,0.3333333333333333,0.3333333333333333,0.0,0.3333333333333333,1,6935.110000020359
6,100,77,67.33333333333333,81.0,33.0,62.0,56.0,53.0,84.0,0.0,0.3333333333333333,0.3333333333333333,0.0,0.3333333333333333,1,5384.590000030585
6,100,78,44.0,45.0,73.0,36.0,13.0,58.0,83.0,0.0,0.3333333333333333,0.3333333333333333,0.0,0.3333333333333333,1,3320.490000012797
6,100,79,34.0,34.0,32.0,60.0,42.0,40.0,0.0,0.0,0.3333333333333333,0.3333333333333333,0.0,0.3333333333333333,1,3740.409999969416
6,100,80,75.33333333333333,76.0,100.0,81.0,50.0,91.0,95.0,0.0,0.3333333333333333,0.3333333333333333,0.0,0.3333333333333333,1,6586.524999991525
6,100,81,25.666666666666664,25.0,93.0,12.0,46.0,24.0,19.0,0.0,0.3333333333333333,0.3333333333333333,0.0,0.3333333333333333,1,4087.279999977909
6,100,82,58.99999999999999,64.0,24.0,67.0,63.0,76.0,47.0,0.0,0.3333333333333333,0.3333333333333333,0.0,0.3333333333333333,1,3894.715000002179
6,100,83,52.33333333333333,54.0,52.0,95.0,9.0,88.0,53.0,0.0,0.3333333333333333,0.3333333333333333,0.0,0.3333333333333333,1,10113.884999998843
6,100,84,43.66666666666666,41.0,0.0,60.0,21.0,54.0,50.0,0.0,0.3333333333333333,0.3333333333333333,0.0,0.3333333333333333,1,4709.014999971259
6,100,85,51.0,54.0,31.0,71.0,40.0,93.0,42.0,0.0,0.3333333333333333,0.3333333333333333,0.0,0.3333333333333333,1,4405.529999989085
6,100,86,85.33333333333333,82.0,16.0,100.0,74.0,33.0,82.0,0.0,0.3333333333333333,0.3333333333333333,0.0,0.3333333333333333,1,3983.2249999744813
6,100,87,38.0,44.0,66.0,60.0,42.0,15.0,12.0,0.0,0.3333333333333333,0.3333333333333333,0.0,0.3333333333333333,1,3390.0649999850425
6,100,88,79.66666666666666,71.0,32.0,64.0,84.0,36.0,91.0,0.0,0.3333333333333333,0.3333333333333333,0.0,0.3333333333333333,1,3684.4999999739225
6,100,89,87.33333333333331,87.0,29.0,94.0,76.0,45.0,92.0,0.0,0.3333333333333333,0.3333333333333333,0.0,0.3333333333333333,1,1935.7849999796601
6,100,90,66.66666666666666,68.0,29.0,24.0,89.0,5.0,87.0,0.0,0.3333333333333333,0.3333333333333333,0.0,0.3333333333333333,1,2345.629999996163
6,100,91,45.0,54.0,60.0,22.0,20.0,66.0,93.0,0.0,0.3333333333333333,0.3333333333333333,0.0,0.3333333333333333,1,3978.439999977127
6,100,92,49.66666666666666,60.0,35.0,48.0,6.0,78.0,95.0,0.0,0.3333333333333333,0.3333333333333333,0.0,0.3333333333333333,1,4258.209999999963
6,100,93,35.33333333333333,28.0,6.0,39.0,65.0,82.0,2.0,0.0,0.3333333333333333,0.3333333333333333,0.0,0.3333333333333333,1,3618.9399999566376
6,100,94,23.0,30.0,21.0,43.0,23.0,93.0,3.0,0.0,0.3333333333333333,0.3333333333333333,0.0,0.3333333333333333,1,5597.565000003669
6,100,95,38.0,35.0,74.0,58.0,0.0,49.0,56.0,0.0,0.3333333333333333,0.3333333333333333,0.0,0.3333333333333333,1,4935.740000044461
6,100,96,15.333333333333332,16.0,24.0,31.0,2.0,20.0,13.0,0.0,0.3333333333333333,0.3333333333333333,0.0,0.3333333333333333,1,3146.154999965802
6,100,97,79.0,77.0,36.0,80.0,97.0,50.0,60.0,0.0,0.3333333333333333,0.3333333333333333,0.0,0.3333333333333333,1,3800.420000043232
6,100,98,68.66666666666666,87.0,71.0,82.0,100.0,98.0,24.0,0.0,0.3333333333333333,0.3333333333333333,0.0,0.3333333333333333,1,3225.2750000334345
6,100,99,68.66666666666666,87.0,71.0,82.0,100.0,98.0,24.0,0.0,0.3333333333333333,0.3333333333333333,0.0,0.3333333333333333,1,3225.2750000334345
6,100,100,68.66666666666666,87.0,71.0,82.0,100.0,98.0,24.0,0.0,0.3333333333333333,0.3333333333333333,0.0,0.3333333333333333,1,3225.2750000334345
7,100,1,59.33333333333333,47.0,54.0,54.0,95.0,69.0,14.0,0.0,0.0,0.3333333333333333,0.3333333333333333,0.3333333333333333,1,20084.540000068955
7,100,2,35.33333333333333,45.0,16.0,35.0,62.0,6.0,38.0,0.0,0.0,0.3333333333333333,0.3333333333333333,0.3333333333333333,1,4376.589999999851
7,100,3,84.66666666666666,77.0,32.0,68.0,89.0,98.0,67.0,0.0,0.0,0.3333333333333333,0.3333333333333333,0.3333333333333333,1,5747.875000000931
7,100,4,41.66666666666666,49.0,51.0,39.0,66.0,31.0,28.0,0.0,0.0,0.3333333333333333,0.3333333333333333,0.3333333333333333,1,5513.06500006467
7,100,5,54.0,57.0,13.0,53.0,42.0,47.0,73.0,0.0,0.0,0.3333333333333333,0.3333333333333333,0.3333333333333333,1,4355.545000056736
7,100,6,49.66666666666666,56.0,52.0,11.0,40.0,65.0,44.0,0.0,0.0,0.3333333333333333,0.3333333333333333,0.3333333333333333,1,3331.535000004805
7,100,7,55.66666666666666,58.0,7.0,64.0,66.0,56.0,45.0,0.0,0.0,0.3333333333333333,0.3333333333333333,0.3333333333333333,1,3219.020000076853
7,100,8,36.99999999999999,30.0,29.0,25.0,77.0,23.0,11.0,0.0,0.0,0.3333333333333333,0.3333333333333333,0.3333333333333333,1,5920.545000000857
7,100,9,32.33333333333333,28.0,26.0,97.0,8.0,22.0,67.0,0.0,0.0,0.3333333333333333,0.3333333333333333,0.3333333333333333,1,5745.3049999894565
7,100,10,76.33333333333333,72.0,99.0,71.0,73.0,58.0,98.0,0.0,0.0,0.3333333333333333,0.3333333333333333,0.3333333333333333,1,9282.84999995958
7,100,11,20.666666666666664,33.0,52.0,89.0,8.0,30.0,24.0,0.0,0.0,0.3333333333333333,0.3333333333333333,0.3333333333333333,1,4572.939999983646
7,100,12,33.0,41.0,1.0,40.0,16.0,62.0,21.0,0.0,0.0,0.3333333333333333,0.3333333333333333,0.3333333333333333,1,5503.900000010616
7,100,13,51.99999999999999,48.0,78.0,55.0,99.0,46.0,11.0,0.0,0.0,0.3333333333333333,0.3333333333333333,0.3333333333333333,1,5257.564999978058
7,100,14,88.33333333333331,81.0,31.0,81.0,84.0,92.0,89.0,0.0,0.0,0.3333333333333333,0.3333333333333333,0.3333333333333333,1,6785.249999957159
7,100,15,49.33333333333333,65.0,67.0,90.0,89.0,48.0,11.0,0.0,0.0,0.3333333333333333,0.3333333333333333,0.3333333333333333,1,6256.499999901279
7,100,16,29.33333333333333,21.0,9.0,56.0,31.0,12.0,45.0,0.0,0.0,0.3333333333333333,0.3333333333333333,0.3333333333333333,1,4512.709999922663
7,100,17,76.66666666666666,67.0,7.0,34.0,77.0,80.0,73.0,0.0,0.0,0.3333333333333333,0.3333333333333333,0.3333333333333333,1,5380.695000058039
7,100,18,57.0,70.0,74.0,71.0,44.0,52.0,75.0,0.0,0.0,0.3333333333333333,0.3333333333333333,0.3333333333333333,1,7551.494999905117
7,100,19,40.0,88.0,54.0,7.0,1.0,99.0,20.0,0.0,0.0,0.3333333333333333,0.3333333333333333,0.3333333333333333,1,3978.6050000693654
7,100,20,51.33333333333333,40.0,44.0,29.0,53.0,20.0,81.0,0.0,0.0,0.3333333333333333,0.3333333333333333,0.3333333333333333,1,5813.564999960363
7,100,21,43.0,32.0,17.0,13.0,7.0,98.0,24.0,0.0,0.0,0.3333333333333333,0.3333333333333333,0.3333333333333333,1,6695.0850000139335
7,100,22,38.33333333333333,69.0,45.0,48.0,27.0,83.0,5.0,0.0,0.0,0.3333333333333333,0.3333333333333333,0.3333333333333333,1,5794.925000052899
7,100,23,70.33333333333333,64.0,13.0,0.0,82.0,46.0,83.0,0.0,0.0,0.3333333333333333,0.3333333333333333,0.3333333333333333,1,5851.855000015348
7,100,24,38.66666666666666,61.0,45.0,20.0,15.0,72.0,29.0,0.0,0.0,0.3333333333333333,0.3333333333333333,0.3333333333333333,1,6190.275000059046
7,100,25,64.0,62.0,73.0,81.0,81.0,68.0,43.0,0.0,0.0,0.3333333333333333,0.3333333333333333,0.3333333333333333,1,3723.809999995865
7,100,26,58.0,58.0,18.0,45.0,83.0,19.0,72.0,0.0,0.0,0.3333333333333333,0.3333333333333333,0.3333333333333333,1,6283.750000060536
7,100,27,59.33333333333333,53.0,38.0,71.0,79.0,34.0,65.0,0.0,0.0,0.3333333333333333,0.3333333333333333,0.3333333333333333,1,3523.614999954589
7,100,28,62.0,61.0,56.0,57.0,73.0,40.0,73.0,0.0,0.0,0.3333333333333333,0.3333333333333333,0.3333333333333333,1,7441.959999967366
7,100,29,23.0,14.0,15.0,62.0,55.0,4.0,10.0,0.0,0.0,0.3333333333333333,0.3333333333333333,0.3333333333333333,1,5864.1500000376245
7,100,30,58.66666666666666,67.0,27.0,67.0,35.0,77.0,64.0,0.0,0.0,0.3333333333333333,0.3333333333333333,0.3333333333333333,1,5740.379999973811
7,100,31,38.0,49.0,63.0,89.0,7.0,39.0,68.0,0.0,0.0,0.3333333333333333,0.3333333333333333,0.3333333333333333,1,10520.15500003472
7,100,32,33.0,48.0,95.0,10.0,23.0,19.0,57.0,0.0,0.0,0.3333333333333333,0.3333333333333333,0.3333333333333333,1,5276.949999970384
7,100,33,29.33333333333333,36.0,56.0,82.0,35.0,41.0,12.0,0.0,0.0,0.3333333333333333,0.3333333333333333,0.3333333333333333,1,2559.679999947548
7,100,34,46.33333333333333,39.0,99.0,16.0,64.0,27.0,48.0,0.0,0.0,0.3333333333333333,0.3333333333333333,0.3333333333333333,1,5909.5300000626585
7,100,35,73.66666666666666,61.0,34.0,66.0,89.0,52.0,80.0,0.0,0.0,0.3333333333333333,0.3333333333333333,0.3333333333333333,1,2469.1849999362603
7,100,36,57.0,58.0,28.0,70.0,84.0,78.0,9.0,0.0,0.0,0.3333333333333333,0.3333333333333333,0.3333333333333333,1,4258.700000005774
7,100,37,51.0,58.0,94.0,44.0,64.0,7.0,82.0,0.0,0.0,0.3333333333333333,0.3333333333333333,0.3333333333333333,1,5863.804999971761
7,100,38,33.666666666666664,50.0,14.0,0.0,1.0,28.0,72.0,0.0,0.0,0.3333333333333333,0.3333333333333333,0.3333333333333333,1,3508.7999999523163
7,100,39,66.0,63.0,98.0,77.0,96.0,7.0,95.0,0.0,0.0,0.3333333333333333,0.3333333333333333,0.3333333333333333,1,3611.195000004954
7,100,40,32.666666666666664,28.0,55.0,41.0,56.0,24.0,18.0,0.0,0.0,0.3333333333333333,0.3333333333333333,0.3333333333333333,1,8273.305000038818
7,100,41,68.66666666666666,79.0,94.0,74.0,80.0,81.0,45.0,0.0,0.0,0.3333333333333333,0.3333333333333333,0.3333333333333333,1,5672.449999954552
7,100,42,37.33333333333333,45.0,38.0,18.0,20.0,52.0,40.0,0.0,0.0,0.3333333333333333,0.3333333333333333,0.3333333333333333,1,8206.030000001192
7,100,43,7.0,12.0,54.0,22.0,4.0,12.0,5.0,0.0,0.0,0.3333333333333333,0.3333333333333333,0.3333333333333333,1,3825.8849999401723
7,100,44,55.66666666666666,78.0,83.0,92.0,24.0,69.0,74.0,0.0,0.0,0.3333333333333333,0.3333333333333333,0.3333333333333333,1,6044.7250000434
7,100,45,58.66666666666666,64.0,28.0,44.0,78.0,9.0,89.0,0.0,0.0,0.3333333333333333,0.3333333333333333,0.3333333333333333,1,10460.560000035912
7,100,46,20.666666666666664,33.0,66.0,80.0,26.0,14.0,22.0,0.0,0.0,0.3333333333333333,0.3333333333333333,0.3333333333333333,1,4206.329999957234
7,100,47,51.0,54.0,73.0,41.0,75.0,53.0,25.0,0.0,0.0,0.3333333333333333,0.3333333333333333,0.3333333333333333,1,6575.575000024401
7,100,48,57.0,40.0,92.0,95.0,72.0,32.0,67.0,0.0,0.0,0.3333333333333333,0.3333333333333333,0.3333333333333333,1,5050.140000064857
7,100,49,49.66666666666666,59.0,21.0,95.0,62.0,79.0,8.0,0.0,0.0,0.3333333333333333,0.3333333333333333,0.3333333333333333,1,5073.594999965279
7,100,50,72.33333333333333,79.0,99.0,49.0,55.0,75.0,87.0,0.0,0.0,0.3333333333333333,0.3333333333333333,0.3333333333333333,1,10496.329999994488
7,100,51,76.33333333333333,82.0,15.0,26.0,51.0,85.0,93.0,0.0,0.0,0.3333333333333333,0.3333333333333333,0.3333333333333333,1,12211.030000005847
7,100,52,48.66666666666666,45.0,77.0,48.0,68.0,22.0,56.0,0.0,0.0,0.3333333333333333,0.3333333333333333,0.3333333333333333,1,15811.819999944419
7,100,53,59.33333333333333,51.0,3.0,53.0,46.0,63.0,69.0,0.0,0.0,0.3333333333333333,0.3333333333333333,0.3333333333333333,1,4342.14000008069
7,100,54,78.33333333333333,80.0,66.0,18.0,47.0,98.0,90.0,0.0,0.0,0.3333333333333333,0.3333333333333333,0.3333333333333333,1,6922.90999996476
7,100,55,20.666666666666664,12.0,6.0,87.0,43.0,12.0,7.0,0.0,0.0,0.3333333333333333,0.3333333333333333,0.3333333333333333,1,5569.535000016913
7,100,56,37.66666666666666,54.0,40.0,82.0,7.0,69.0,37.0,0.0,0.0,0.3333333333333333,0.3333333333333333,0.3333333333333333,1,4346.445000031963
7,100,57,31.0,23.0,42.0,19.0,35.0,34.0,24.0,0.0,0.0,0.3333333333333333,0.3333333333333333,0.3333333333333333,1,4695.975000038743
7,100,58,60.0,78.0,63.0,70.0,90.0,81.0,9.0,0.0,0.0,0.3333333333333333,0.3333333333333333,0.3333333333333333,1,5338.055000058375
7,100,59,62.0,72.0,76.0,57.0,44.0,48.0,94.0,0.0,0.0,0.3333333333333333,0.3333333333333333,0.3333333333333333,1,18104.449999984354
7,100,60,28.0,35.0,39.0,5.0,41.0,42.0,1.0,0.0,0.0,0.3333333333333333,0.3333333333333333,0.3333333333333333,1,7718.940000049771
7,100,61,28.333333333333336,35.0,22.0,87.0,36.0,1.0,48.0,0.0,0.0,0.3333333333333333,0.3333333333333333,0.3333333333333333,1,3424.3850000202656
7,100,62,62.66666666666666,59.0,58.0,70.0,89.0,45.0,54.0,0.0,0.0,0.3333333333333333,0.3333333333333333,0.3333333333333333,1,20747.005000011995
7,100,63,34.0,33.0,54.0,29.0,34.0,37.0,31.0,0.0,0.0,0.3333333333333333,0.3333333333333333,0.3333333333333333,1,10706.935000023805
7,100,64,58.0,84.0,25.0,7.0,1.0,81.0,92.0,0.0,0.0,0.3333333333333333,0.3333333333333333,0.3333333333333333,1,10670.730000012554
7,100,65,32.33333333333333,37.0,11.0,92.0,43.0,36.0,18.0,0.0,0.0,0.3333333333333333,0.3333333333333333,0.3333333333333333,1,17181.684999959543
7,100,66,64.0,73.0,23.0,66.0,87.0,92.0,13.0,0.0,0.0,0.3333333333333333,0.3333333333333333,0.3333333333333333,1,3905.405000085011
7,100,67,58.66666666666666,69.0,81.0,68.0,90.0,24.0,62.0,0.0,0.0,0.3333333333333333,0.3333333333333333,0.3333333333333333,1,11919.995000003835
7,100,68,60.99999999999999,59.0,100.0,83.0,72.0,61.0,50.0,0.0,0.0,0.3333333333333333,0.3333333333333333,0.3333333333333333,1,3736.1250000540167
7,100,69,66.66666666666666,74.0,82.0,66.0,98.0,78.0,24.0,0.0,0.0,0.3333333333333333,0.3333333333333333,0.3333333333333333,1,5120.690000010654
7,100,70,22.666666666666664,25.0,13.0,31.0,1.0,28.0,39.0,0.0,0.0,0.3333333333333333,0.3333333333333333,0.3333333333333333,1,6673.4449999639755
7,100,71,51.33333333333333,45.0,92.0,12.0,22.0,80.0,52.0,0.0,0.0,0.3333333333333333,0.3333333333333333,0.3333333333333333,1,4514.584999997169
7,100,72,45.33333333333333,57.0,48.0,76.0,19.0,36.0,81.0,0.0,0.0,0.3333333333333333,0.3333333333333333,0.3333333333333333,1,9663.12000004109
7,100,73,65.0,55.0,52.0,62.0,59.0,36.0,100.0,0.0,0.0,0.3333333333333333,0.3333333333333333,0.3333333333333333,1,3843.6199999414384
7,100,74,22.666666666666664,25.0,76.0,62.0,61.0,1.0,6.0,0.0,0.0,0.3333333333333333,0.3333333333333333,0.3333333333333333,1,7463.420000043698
7,100,75,30.0,33.0,65.0,12.0,23.0,55.0,12.0,0.0,0.0,0.3333333333333333,0.3333333333333333,0.3333333333333333,1,4629.5000000391165
7,100,76,18.33333333333333,25.0,59.0,45.0,6.0,5.0,44.0,0.0,0.0,0.3333333333333333,0.3333333333333333,0.3333333333333333,1,7393.275000038557
7,100,77,46.33333333333333,23.0,16.0,96.0,61.0,2.0,76.0,0.0,0.0,0.3333333333333333,0.3333333333333333,0.3333333333333333,1,5619.089999934658
7,100,78,89.66666666666666,94.0,0.0,19.0,98.0,83.0,88.0,0.0,0.0,0.3333333333333333,0.3333333333333333,0.3333333333333333,1,7440.650000004098
7,100,79,51.0,57.0,39.0,64.0,32.0,85.0,36.0,0.0,0.0,0.3333333333333333,0.3333333333333333,0.3333333333333333,1,12906.360000022689
7,100,80,94.0,95.0,53.0,45.0,92.0,94.0,96.0,0.0,0.0,0.3333333333333333,0.3333333333333333,0.3333333333333333,1,8724.214999936521
7,100,81,63.0,86.0,32.0,56.0,3.0,92.0,94.0,0.0,0.0,0.3333333333333333,0.3333333333333333,0.3333333333333333,1,5609.414999955335
7,100,82,21.0,17.0,5.0,89.0,22.0,22.0,19.0,0.0,0.0,0.3333333333333333,0.3333333333333333,0.3333333333333333,1,6479.719999944791
7,100,83,57.33333333333333,61.0,23.0,48.0,55.0,50.0,67.0,0.0,0.0,0.3333333333333333,0.3333333333333333,0.3333333333333333,1,6940.034999977796
7,100,84,55.66666666666666,54.0,4.0,67.0,92.0,62.0,13.0,0.0,0.0,0.3333333333333333,0.3333333333333333,0.3333333333333333,1,9404.244999983348
7,100,85,77.0,75.0,81.0,77.0,69.0,82.0,80.0,0.0,0.0,0.3333333333333333,0.3333333333333333,0.3333333333333333,1,7133.1549999304125
7,100,86,81.66666666666666,73.0,6.0,42.0,54.0,91.0,100.0,0.0,0.0,0.3333333333333333,0.3333333333333333,0.3333333333333333,1,7946.530000073835
7,100,87,37.33333333333333,35.0,19.0,48.0,67.0,18.0,27.0,0.0,0.0,0.3333333333333333,0.3333333333333333,0.3333333333333333,1,2936.7499999934807
7,100,88,33.0,49.0,76.0,44.0,9.0,80.0,10.0,0.0,0.0,0.3333333333333333,0.3333333333333333,0.3333333333333333,1,8679.514999967068
7,100,89,50.0,44.0,58.0,32.0,74.0,31.0,45.0,0.0,0.0,0.3333333333333333,0.3333333333333333,0.3333333333333333,1,17754.270000034012
7,100,90,30.666666666666664,27.0,84.0,89.0,74.0,6.0,12.0,0.0,0.0,0.3333333333333333,0.3333333333333333,0.3333333333333333,1,3439.795000012964
7,100,91,48.66666666666666,28.0,24.0,100.0,79.0,2.0,65.0,0.0,0.0,0.3333333333333333,0.3333333333333333,0.3333333333333333,1,10767.14000001084
7,100,92,33.0,34.0,72.0,37.0,24.0,46.0,29.0,0.0,0.0,0.3333333333333333,0.3333333333333333,0.3333333333333333,1,5086.790000088513
7,100,93,52.33333333333333,50.0,47.0,46.0,31.0,43.0,83.0,0.0,0.0,0.3333333333333333,0.3333333333333333,0.3333333333333333,1,6697.745000012219
7,100,94,52.0,45.0,5.0,21.0,48.0,28.0,80.0,0.0,0.0,0.3333333333333333,0.3333333333333333,0.3333333333333333,1,2475.755000021309
7,100,95,41.66666666666666,51.0,62.0,74.0,30.0,13.0,82.0,0.0,0.0,0.3333333333333333,0.3333333333333333,0.3333333333333333,1,5809.065000037664
7,100,96,51.33333333333333,49.0,35.0,69.0,43.0,52.0,59.0,0.0,0.0,0.3333333333333333,0.3333333333333333,0.3333333333333333,1,3442.6900000544265
7,100,97,29.0,29.0,89.0,35.0,17.0,29.0,41.0,0.0,0.0,0.3333333333333333,0.3333333333333333,0.3333333333333333,1,4996.1450000992045
7,100,98,39.0,40.0,86.0,10.0,4.0,90.0,23.0,0.0,0.0,0.3333333333333333,0.3333333333333333,0.3333333333333333,1,10126.014999928884
7,100,99,3.0,2.0,23.0,96.0,4.0,4.0,1.0,0.0,0.0,0.3333333333333333,0.3333333333333333,0.3333333333333333,1,5968.890000018291
7,100,100,34.33333333333333,30.0,31.0,25.0,12.0,59.0,32.0,0.0,0.0,0.3333333333333333,0.3333333333333333,0.3333333333333333,1,9350.525000016203
8,100,1,20.33333333333333,51.0,25.0,56.0,15.0,21.0,58.0,0.3333333333333333,0.0,0.3333333333333333,0.3333333333333333,0.0,1,6343.99999998277
8,100,2,63.33333333333333,70.0,52.0,85.0,57.0,81.0,68.0,0.3333333333333333,0.0,0.3333333333333333,0.3333333333333333,0.0,1,1944.1000000224449
8,100,3,56.0,77.0,89.0,54.0,48.0,31.0,91.0,0.3333333333333333,0.0,0.3333333333333333,0.3333333333333333,0.0,1,2222.200000018347
8,100,4,36.66666666666666,41.0,56.0,61.0,45.0,9.0,74.0,0.3333333333333333,0.0,0.3333333333333333,0.3333333333333333,0.0,1,2670.799999963492
8,100,5,59.99999999999999,66.0,39.0,77.0,94.0,47.0,46.0,0.3333333333333333,0.0,0.3333333333333333,0.3333333333333333,0.0,1,2745.8999999798834
8,100,6,50.33333333333333,39.0,30.0,36.0,40.0,81.0,76.0,0.3333333333333333,0.0,0.3333333333333333,0.3333333333333333,0.0,1,3147.500000020955
8,100,7,55.66666666666666,42.0,82.0,70.0,40.0,45.0,42.0,0.3333333333333333,0.0,0.3333333333333333,0.3333333333333333,0.0,1,1978.2000000122935
8,100,8,74.0,77.0,36.0,87.0,92.0,94.0,89.0,0.3333333333333333,0.0,0.3333333333333333,0.3333333333333333,0.0,1,2669.200000003912
8,100,9,61.66666666666666,73.0,8.0,44.0,92.0,85.0,93.0,0.3333333333333333,0.0,0.3333333333333333,0.3333333333333333,0.0,1,3404.600000008941
8,100,10,72.0,60.0,58.0,48.0,80.0,78.0,69.0,0.3333333333333333,0.0,0.3333333333333333,0.3333333333333333,0.0,1,2492.299999983516
8,100,11,17.0,41.0,18.0,51.0,29.0,4.0,49.0,0.3333333333333333,0.0,0.3333333333333333,0.3333333333333333,0.0,1,2558.599999989383
8,100,12,37.0,18.0,24.0,29.0,71.0,16.0,15.0,0.3333333333333333,0.0,0.3333333333333333,0.3333333333333333,0.0,1,2458.4000000031665
8,100,13,48.99999999999999,34.0,29.0,74.0,59.0,59.0,18.0,0.3333333333333333,0.0,0.3333333333333333,0.3333333333333333,0.0,1,4289.899999974296
8,100,14,45.66666666666666,40.0,32.0,90.0,23.0,82.0,22.0,0.3333333333333333,0.0,0.3333333333333333,0.3333333333333333,0.0,1,1673.9999999990687
8,100,15,33.0,39.0,6.0,47.0,26.0,67.0,67.0,0.3333333333333333,0.0,0.3333333333333333,0.3333333333333333,0.0,1,2079.200000036508
8,100,16,49.0,35.0,99.0,19.0,39.0,9.0,76.0,0.3333333333333333,0.0,0.3333333333333333,0.3333333333333333,0.0,1,2240.4000000096853
8,100,17,13.999999999999998,18.0,35.0,65.0,5.0,2.0,70.0,0.3333333333333333,0.0,0.3333333333333333,0.3333333333333333,0.0,1,3314.39999997383
8,100,18,50.33333333333333,43.0,57.0,4.0,92.0,2.0,3.0,0.3333333333333333,0.0,0.3333333333333333,0.3333333333333333,0.0,1,2672.200000029989
8,100,19,60.0,74.0,7.0,51.0,96.0,77.0,25.0,0.3333333333333333,0.0,0.3333333333333333,0.3333333333333333,0.0,1,2760.7999999891035
8,100,20,66.66666666666666,49.0,93.0,7.0,62.0,45.0,1.0,0.3333333333333333,0.0,0.3333333333333333,0.3333333333333333,0.0,1,2183.000000019092
8,100,21,60.66666666666666,58.0,60.0,52.0,67.0,55.0,88.0,0.3333333333333333,0.0,0.3333333333333333,0.3333333333333333,0.0,1,3556.900000025053
8,100,22,64.0,64.0,35.0,70.0,76.0,81.0,30.0,0.3333333333333333,0.0,0.3333333333333333,0.3333333333333333,0.0,1,2915.099999983795
8,100,23,76.66666666666666,74.0,97.0,1.0,85.0,48.0,94.0,0.3333333333333333,0.0,0.3333333333333333,0.3333333333333333,0.0,1,3008.199999982025
8,100,24,37.0,43.0,10.0,52.0,82.0,19.0,63.0,0.3333333333333333,0.0,0.3333333333333333,0.3333333333333333,0.0,1,3505.799999984447
8,100,25,17.0,41.0,30.0,84.0,5.0,16.0,6.0,0.3333333333333333,0.0,0.3333333333333333,0.3333333333333333,0.0,1,5696.100000001025
8,100,26,46.33333333333333,63.0,29.0,37.0,43.0,67.0,75.0,0.3333333333333333,0.0,0.3333333333333333,0.3333333333333333,0.0,1,2379.7999999951567
8,100,27,34.666666666666664,41.0,8.0,58.0,25.0,71.0,28.0,0.3333333333333333,0.0,0.3333333333333333,0.3333333333333333,0.0,1,3157.3999999673106
8,100,28,83.0,81.0,97.0,47.0,69.0,83.0,91.0,0.3333333333333333,0.0,0.3333333333333333,0.3333333333333333,0.0,1,1751.9000000320373
8,100,29,63.66666666666666,95.0,87.0,88.0,6.0,98.0,94.0,0.3333333333333333,0.0,0.3333333333333333,0.3333333333333333,0.0,1,2059.6000000368804
8,100,30,51.66666666666666,56.0,50.0,14.0,9.0,96.0,52.0,0.3333333333333333,0.0,0.3333333333333333,0.3333333333333333,0.0,1,3236.299999989569
8,100,31,55.0,71.0,15.0,53.0,68.0,82.0,95.0,0.3333333333333333,0.0,0.3333333333333333,0.3333333333333333,0.0,1,2155.7000000029802
8,100,32,49.0,64.0,42.0,62.0,8.0,97.0,84.0,0.3333333333333333,0.0,0.3333333333333333,0.3333333333333333,0.0,1,2139.400000043679
8,100,33,18.0,26.0,15.0,38.0,11.0,28.0,39.0,0.3333333333333333,0.0,0.3333333333333333,0.3333333333333333,0.0,1,3661.199999973178
8,100,34,42.33333333333333,39.0,69.0,14.0,53.0,5.0,6.0,0.3333333333333333,0.0,0.3333333333333333,0.3333333333333333,0.0,1,2901.099999959115
8,100,35,45.0,47.0,82.0,85.0,41.0,12.0,94.0,0.3333333333333333,0.0,0.3333333333333333,0.3333333333333333,0.0,1,3038.0000000004657
8,100,36,45.66666666666666,51.0,82.0,38.0,18.0,37.0,61.0,0.3333333333333333,0.0,0.3333333333333333,0.3333333333333333,0.0,1,2236.800000013318
8,100,37,8.333333333333332,16.0,8.0,53.0,14.0,3.0,70.0,0.3333333333333333,0.0,0.3333333333333333,0.3333333333333333,0.0,1,2062.7999999560416
8,100,38,53.66666666666666,24.0,12.0,63.0,51.0,98.0,40.0,0.3333333333333333,0.0,0.3333333333333333,0.3333333333333333,0.0,1,2603.399999963585
8,100,39,60.66666666666666,40.0,94.0,70.0,37.0,51.0,5.0,0.3333333333333333,0.0,0.3333333333333333,0.3333333333333333,0.0,1,2619.699999981094
8,100,40,48.66666666666666,48.0,87.0,61.0,43.0,16.0,33.0,0.3333333333333333,0.0,0.3333333333333333,0.3333333333333333,0.0,1,2573.7000000081025
8,100,41,65.66666666666666,51.0,86.0,3.0,33.0,78.0,80.0,0.3333333333333333,0.0,0.3333333333333333,0.3333333333333333,0.0,1,2568.700000003446
8,100,42,39.66666666666666,44.0,89.0,26.0,13.0,17.0,86.0,0.3333333333333333,0.0,0.3333333333333333,0.3333333333333333,0.0,1,3003.8000000058673
8,100,43,62.33333333333333,63.0,65.0,67.0,43.0,79.0,96.0,0.3333333333333333,0.0,0.3333333333333333,0.3333333333333333,0.0,1,3539.600000018254
8,100,44,40.33333333333333,47.0,0.0,85.0,94.0,27.0,51.0,0.3333333333333333,0.0,0.3333333333333333,0.3333333333333333,0.0,1,3452.199999999721
8,100,45,65.66666666666667,63.0,88.0,3.0,86.0,23.0,96.0,0.3333333333333333,0.0,0.3333333333333333,0.3333333333333333,0.0,1,5997.0000000321315
8,100,46,39.0,43.0,10.0,87.0,15.0,92.0,25.0,0.3333333333333333,0.0,0.3333333333333333,0.3333333333333333,0.0,1,3177.9000000096858
8,100,47,43.66666666666666,37.0,94.0,5.0,33.0,4.0,88.0,0.3333333333333333,0.0,0.3333333333333333,0.3333333333333333,0.0,1,3406.5999999875207
