"rt","url","experiment_phase","trial_type","trial_index","time_elapsed","internal_node_id","experiment_name","workerId","assignmentId","hitId","experiment_start_time","experiment_end_time","total_time","ip_address","version_date","anon_id","demo_mode","completion_code","page_rt","gem_values","response","correct_answer","gem_colors","gem_color_names","phase","gem_weights"
"59418","src/html/instructions.html","instructions","render-mustache-template","0","60326","0.0-0.0","wizard_gems","","","","2019-08-15T20:27:36Z","2019-08-15T20:36:25Z","528716","150.135.165.121","2019-08-10","c5j46y1h33xjfya","false","3814884265-exa-6033908972-mple","","","","","","","",""
"12611.694999999992","","","wizard-gem-trial","1","75464","0.0-1.0","wizard_gems","","","","2019-08-15T20:27:36Z","2019-08-15T20:36:25Z","528716","150.135.165.121","2019-08-10","c5j46y1h33xjfya","false","3814884265-exa-6033908972-mple","14624.959999999992","[27,80,59,89,19]","35","76","[""#005BA8"",""#6F9CA4"",""#DA7100"",""#FF4100"",""#38A600""]","[""blue"",""grey"",""orange"",""red"",""green""]","learning","[0,0.3333333333333333,0.3333333333333333,0.3333333333333333,0]"
"2336.5800000000017","","","wizard-gem-trial","2","80309","0.0-2.0","wizard_gems","","","","2019-08-15T20:27:36Z","2019-08-15T20:36:25Z","528716","150.135.165.121","2019-08-10","c5j46y1h33xjfya","false","3814884265-exa-6033908972-mple","4337.440000000017","[62,61,26,30,54]","75","39","[""#005BA8"",""#6F9CA4"",""#DA7100"",""#FF4100"",""#38A600""]","[""blue"",""grey"",""orange"",""red"",""green""]","learning","[0,0.3333333333333333,0.3333333333333333,0.3333333333333333,0]"
"1635.1250000000146","","","wizard-gem-trial","3","84448","0.0-3.0","wizard_gems","","","","2019-08-15T20:27:36Z","2019-08-15T20:36:25Z","528716","150.135.165.121","2019-08-10","c5j46y1h33xjfya","false","3814884265-exa-6033908972-mple","3635.440000000017","[98,80,81,72,10]","57","77.66666666666666","[""#005BA8"",""#6F9CA4"",""#DA7100"",""#FF4100"",""#38A600""]","[""blue"",""grey"",""orange"",""red"",""green""]","learning","[0,0.3333333333333333,0.3333333333333333,0.3333333333333333,0]"
"892.8150000000169","","","wizard-gem-trial","4","87847","0.0-4.0","wizard_gems","","","","2019-08-15T20:27:36Z","2019-08-15T20:36:25Z","528716","150.135.165.121","2019-08-10","c5j46y1h33xjfya","false","3814884265-exa-6033908972-mple","2894.845000000001","[96,75,99,80,54]","86","84.66666666666666","[""#005BA8"",""#6F9CA4"",""#DA7100"",""#FF4100"",""#38A600""]","[""blue"",""grey"",""orange"",""red"",""green""]","learning","[0,0.3333333333333333,0.3333333333333333,0.3333333333333333,0]"
"1229.1649999999936","","","wizard-gem-trial","5","91592","0.0-5.0","wizard_gems","","","","2019-08-15T20:27:36Z","2019-08-15T20:36:25Z","528716","150.135.165.121","2019-08-10","c5j46y1h33xjfya","false","3814884265-exa-6033908972-mple","3229.875","[18,67,24,17,71]","32","36","[""#005BA8"",""#6F9CA4"",""#DA7100"",""#FF4100"",""#38A600""]","[""blue"",""grey"",""orange"",""red"",""green""]","learning","[0,0.3333333333333333,0.3333333333333333,0.3333333333333333,0]"
"1057.5650000000023","","","wizard-gem-trial","6","95176","0.0-6.0","wizard_gems","","","","2019-08-15T20:27:36Z","2019-08-15T20:36:25Z","528716","150.135.165.121","2019-08-10","c5j46y1h33xjfya","false","3814884265-exa-6033908972-mple","3072.7400000000052","[15,70,100,95,18]","16","88.33333333333331","[""#005BA8"",""#6F9CA4"",""#DA7100"",""#FF4100"",""#38A600""]","[""blue"",""grey"",""orange"",""red"",""green""]","learning","[0,0.3333333333333333,0.3333333333333333,0.3333333333333333,0]"
"1334.4449999999779","","","wizard-gem-trial","7","99021","0.0-7.0","wizard_gems","","","","2019-08-15T20:27:36Z","2019-08-15T20:36:25Z","528716","150.135.165.121","2019-08-10","c5j46y1h33xjfya","false","3814884265-exa-6033908972-mple","3335.7949999999837","[48,95,29,81,45]","49","68.33333333333333","[""#005BA8"",""#6F9CA4"",""#DA7100"",""#FF4100"",""#38A600""]","[""blue"",""grey"",""orange"",""red"",""green""]","learning","[0,0.3333333333333333,0.3333333333333333,0.3333333333333333,0]"
"1039.3899999999994","","","wizard-gem-trial","8","102578","0.0-8.0","wizard_gems","","","","2019-08-15T20:27:36Z","2019-08-15T20:36:25Z","528716","150.135.165.121","2019-08-10","c5j46y1h33xjfya","false","3814884265-exa-6033908972-mple","3041.654999999999","[84,5,51,88,91]","68","48","[""#005BA8"",""#6F9CA4"",""#DA7100"",""#FF4100"",""#38A600""]","[""blue"",""grey"",""orange"",""red"",""green""]","learning","[0,0.3333333333333333,0.3333333333333333,0.3333333333333333,0]"
"1211.4300000000076","","","wizard-gem-trial","9","106301","0.0-9.0","wizard_gems","","","","2019-08-15T20:27:36Z","2019-08-15T20:36:25Z","528716","150.135.165.121","2019-08-10","c5j46y1h33xjfya","false","3814884265-exa-6033908972-mple","3213.5149999999994","[62,28,27,47,54]","56","34","[""#005BA8"",""#6F9CA4"",""#DA7100"",""#FF4100"",""#38A600""]","[""blue"",""grey"",""orange"",""red"",""green""]","learning","[0,0.3333333333333333,0.3333333333333333,0.3333333333333333,0]"
"1026.9850000000297","","","wizard-gem-trial","10","109843","0.0-10.0","wizard_gems","","","","2019-08-15T20:27:36Z","2019-08-15T20:36:25Z","528716","150.135.165.121","2019-08-10","c5j46y1h33xjfya","false","3814884265-exa-6033908972-mple","3036.185000000012","[66,95,12,28,98]","47","45","[""#005BA8"",""#6F9CA4"",""#DA7100"",""#FF4100"",""#38A600""]","[""blue"",""grey"",""orange"",""red"",""green""]","learning","[0,0.3333333333333333,0.3333333333333333,0.3333333333333333,0]"
"1059.854999999996","","","wizard-gem-trial","11","113427","0.0-11.0","wizard_gems","","","","2019-08-15T20:27:36Z","2019-08-15T20:36:25Z","528716","150.135.165.121","2019-08-10","c5j46y1h33xjfya","false","3814884265-exa-6033908972-mple","3072.0950000000157","[72,48,33,45,52]","49","42","[""#005BA8"",""#6F9CA4"",""#DA7100"",""#FF4100"",""#38A600""]","[""blue"",""grey"",""orange"",""red"",""green""]","learning","[0,0.3333333333333333,0.3333333333333333,0.3333333333333333,0]"
"2181.8999999999796","","","wizard-gem-trial","12","118114","0.0-12.0","wizard_gems","","","","2019-08-15T20:27:36Z","2019-08-15T20:36:25Z","528716","150.135.165.121","2019-08-10","c5j46y1h33xjfya","false","3814884265-exa-6033908972-mple","4182.590000000011","[23,1,80,10,17]","57","30.33333333333333","[""#005BA8"",""#6F9CA4"",""#DA7100"",""#FF4100"",""#38A600""]","[""blue"",""grey"",""orange"",""red"",""green""]","learning","[0,0.3333333333333333,0.3333333333333333,0.3333333333333333,0]"
"1838.4500000000262","","","wizard-gem-trial","13","122482","0.0-13.0","wizard_gems","","","","2019-08-15T20:27:36Z","2019-08-15T20:36:25Z","528716","150.135.165.121","2019-08-10","c5j46y1h33xjfya","false","3814884265-exa-6033908972-mple","3849.8200000000215","[97,43,39,79,38]","63","53.666666666666664","[""#005BA8"",""#6F9CA4"",""#DA7100"",""#FF4100"",""#38A600""]","[""blue"",""grey"",""orange"",""red"",""green""]","learning","[0,0.3333333333333333,0.3333333333333333,0.3333333333333333,0]"
"766.6349999999802","","","wizard-gem-trial","14","125763","0.0-14.0","wizard_gems","","","","2019-08-15T20:27:36Z","2019-08-15T20:36:25Z","528716","150.135.165.121","2019-08-10","c5j46y1h33xjfya","false","3814884265-exa-6033908972-mple","2773.2299999999814","[71,61,90,39,68]","51","63.33333333333333","[""#005BA8"",""#6F9CA4"",""#DA7100"",""#FF4100"",""#38A600""]","[""blue"",""grey"",""orange"",""red"",""green""]","learning","[0,0.3333333333333333,0.3333333333333333,0.3333333333333333,0]"
"1427.219999999972","","","wizard-gem-trial","15","129701","0.0-15.0","wizard_gems","","","","2019-08-15T20:27:36Z","2019-08-15T20:36:25Z","528716","150.135.165.121","2019-08-10","c5j46y1h33xjfya","false","3814884265-exa-6033908972-mple","3429.4300000000076","[46,29,2,24,41]","38","18.333333333333332","[""#005BA8"",""#6F9CA4"",""#DA7100"",""#FF4100"",""#38A600""]","[""blue"",""grey"",""orange"",""red"",""green""]","learning","[0,0.3333333333333333,0.3333333333333333,0.3333333333333333,0]"
"1417.4850000000151","","","wizard-gem-trial","16","133637","0.0-16.0","wizard_gems","","","","2019-08-15T20:27:36Z","2019-08-15T20:36:25Z","528716","150.135.165.121","2019-08-10","c5j46y1h33xjfya","false","3814884265-exa-6033908972-mple","3430.8649999999907","[32,62,33,67,93]","28","54","[""#005BA8"",""#6F9CA4"",""#DA7100"",""#FF4100"",""#38A600""]","[""blue"",""grey"",""orange"",""red"",""green""]","learning","[0,0.3333333333333333,0.3333333333333333,0.3333333333333333,0]"
"1296.2600000000093","","","wizard-gem-trial","17","137458","0.0-17.0","wizard_gems","","","","2019-08-15T20:27:36Z","2019-08-15T20:36:25Z","528716","150.135.165.121","2019-08-10","c5j46y1h33xjfya","false","3814884265-exa-6033908972-mple","3301.829999999987","[6,65,8,38,62]","28","37","[""#005BA8"",""#6F9CA4"",""#DA7100"",""#FF4100"",""#38A600""]","[""blue"",""grey"",""orange"",""red"",""green""]","learning","[0,0.3333333333333333,0.3333333333333333,0.3333333333333333,0]"
"1191.5050000000047","","","wizard-gem-trial","18","141165","0.0-18.0","wizard_gems","","","","2019-08-15T20:27:36Z","2019-08-15T20:36:25Z","528716","150.135.165.121","2019-08-10","c5j46y1h33xjfya","false","3814884265-exa-6033908972-mple","3192.905000000057","[54,27,23,94,50]","38","48","[""#005BA8"",""#6F9CA4"",""#DA7100"",""#FF4100"",""#38A600""]","[""blue"",""grey"",""orange"",""red"",""green""]","learning","[0,0.3333333333333333,0.3333333333333333,0.3333333333333333,0]"
"1519.0049999999756","","","wizard-gem-trial","19","145192","0.0-19.0","wizard_gems","","","","2019-08-15T20:27:36Z","2019-08-15T20:36:25Z","528716","150.135.165.121","2019-08-10","c5j46y1h33xjfya","false","3814884265-exa-6033908972-mple","3520.204999999958","[85,16,75,13,20]","52","34.666666666666664","[""#005BA8"",""#6F9CA4"",""#DA7100"",""#FF4100"",""#38A600""]","[""blue"",""grey"",""orange"",""red"",""green""]","learning","[0,0.3333333333333333,0.3333333333333333,0.3333333333333333,0]"
"3263.8499999999767","","","wizard-gem-trial","20","150982","0.0-20.0","wizard_gems","","","","2019-08-15T20:27:36Z","2019-08-15T20:36:25Z","528716","150.135.165.121","2019-08-10","c5j46y1h33xjfya","false","3814884265-exa-6033908972-mple","5277.165000000008","[38,80,64,85,6]","34","76.33333333333333","[""#005BA8"",""#6F9CA4"",""#DA7100"",""#FF4100"",""#38A600""]","[""blue"",""grey"",""orange"",""red"",""green""]","learning","[0,0.3333333333333333,0.3333333333333333,0.3333333333333333,0]"
"1237.0950000000012","","","wizard-gem-trial","21","154738","0.0-21.0","wizard_gems","","","","2019-08-15T20:27:36Z","2019-08-15T20:36:25Z","528716","150.135.165.121","2019-08-10","c5j46y1h33xjfya","false","3814884265-exa-6033908972-mple","3248.334999999992","[95,45,74,39,49]","53","52.666666666666664","[""#005BA8"",""#6F9CA4"",""#DA7100"",""#FF4100"",""#38A600""]","[""blue"",""grey"",""orange"",""red"",""green""]","learning","[0,0.3333333333333333,0.3333333333333333,0.3333333333333333,0]"
"2393.304999999993","","","wizard-gem-trial","22","159653","0.0-22.0","wizard_gems","","","","2019-08-15T20:27:36Z","2019-08-15T20:36:25Z","528716","150.135.165.121","2019-08-10","c5j46y1h33xjfya","false","3814884265-exa-6033908972-mple","4398.584999999963","[95,13,13,32,68]","57","19.333333333333332","[""#005BA8"",""#6F9CA4"",""#DA7100"",""#FF4100"",""#38A600""]","[""blue"",""grey"",""orange"",""red"",""green""]","learning","[0,0.3333333333333333,0.3333333333333333,0.3333333333333333,0]"
"1442.3450000000012","","","wizard-gem-trial","23","163613","0.0-23.0","wizard_gems","","","","2019-08-15T20:27:36Z","2019-08-15T20:36:25Z","528716","150.135.165.121","2019-08-10","c5j46y1h33xjfya","false","3814884265-exa-6033908972-mple","3443.2449999999953","[71,92,44,54,24]","41","63.33333333333333","[""#005BA8"",""#6F9CA4"",""#DA7100"",""#FF4100"",""#38A600""]","[""blue"",""grey"",""orange"",""red"",""green""]","learning","[0,0.3333333333333333,0.3333333333333333,0.3333333333333333,0]"
"2049.5650000000314","","","wizard-gem-trial","24","168177","0.0-24.0","wizard_gems","","","","2019-08-15T20:27:36Z","2019-08-15T20:36:25Z","528716","150.135.165.121","2019-08-10","c5j46y1h33xjfya","false","3814884265-exa-6033908972-mple","4056.1500000000233","[17,84,37,76,72]","49","65.66666666666666","[""#005BA8"",""#6F9CA4"",""#DA7100"",""#FF4100"",""#38A600""]","[""blue"",""grey"",""orange"",""red"",""green""]","learning","[0,0.3333333333333333,0.3333333333333333,0.3333333333333333,0]"
"2244.719999999972","","","wizard-gem-trial","25","172926","0.0-25.0","wizard_gems","","","","2019-08-15T20:27:36Z","2019-08-15T20:36:25Z","528716","150.135.165.121","2019-08-10","c5j46y1h33xjfya","false","3814884265-exa-6033908972-mple","4244.994999999966","[9,37,2,61,30]","11","33.33333333333333","[""#005BA8"",""#6F9CA4"",""#DA7100"",""#FF4100"",""#38A600""]","[""blue"",""grey"",""orange"",""red"",""green""]","learning","[0,0.3333333333333333,0.3333333333333333,0.3333333333333333,0]"
"1796.429999999993","","","wizard-gem-trial","26","177246","0.0-26.0","wizard_gems","","","","2019-08-15T20:27:36Z","2019-08-15T20:36:25Z","528716","150.135.165.121","2019-08-10","c5j46y1h33xjfya","false","3814884265-exa-6033908972-mple","3803.6750000000175","[82,2,91,8,26]","64","33.666666666666664","[""#005BA8"",""#6F9CA4"",""#DA7100"",""#FF4100"",""#38A600""]","[""blue"",""grey"",""orange"",""red"",""green""]","learning","[0,0.3333333333333333,0.3333333333333333,0.3333333333333333,0]"
"1295.3000000000175","","","wizard-gem-trial","27","181065","0.0-27.0","wizard_gems","","","","2019-08-15T20:27:36Z","2019-08-15T20:36:25Z","528716","150.135.165.121","2019-08-10","c5j46y1h33xjfya","false","3814884265-exa-6033908972-mple","3306.180000000051","[59,88,43,64,97]","54","65","[""#005BA8"",""#6F9CA4"",""#DA7100"",""#FF4100"",""#38A600""]","[""blue"",""grey"",""orange"",""red"",""green""]","learning","[0,0.3333333333333333,0.3333333333333333,0.3333333333333333,0]"
"1738.9899999999907","","","wizard-gem-trial","28","185322","0.0-28.0","wizard_gems","","","","2019-08-15T20:27:36Z","2019-08-15T20:36:25Z","528716","150.135.165.121","2019-08-10","c5j46y1h33xjfya","false","3814884265-exa-6033908972-mple","3746.5250000000233","[17,28,74,65,38]","28","55.666666666666664","[""#005BA8"",""#6F9CA4"",""#DA7100"",""#FF4100"",""#38A600""]","[""blue"",""grey"",""orange"",""red"",""green""]","learning","[0,0.3333333333333333,0.3333333333333333,0.3333333333333333,0]"
"1145.304999999993","","","wizard-gem-trial","29","188972","0.0-29.0","wizard_gems","","","","2019-08-15T20:27:36Z","2019-08-15T20:36:25Z","528716","150.135.165.121","2019-08-10","c5j46y1h33xjfya","false","3814884265-exa-6033908972-mple","3146.11500000002","[40,75,57,16,82]","56","49.333333333333336","[""#005BA8"",""#6F9CA4"",""#DA7100"",""#FF4100"",""#38A600""]","[""blue"",""grey"",""orange"",""red"",""green""]","learning","[0,0.3333333333333333,0.3333333333333333,0.3333333333333333,0]"
"1807.7000000000116","","","wizard-gem-trial","30","193289","0.0-30.0","wizard_gems","","","","2019-08-15T20:27:36Z","2019-08-15T20:36:25Z","528716","150.135.165.121","2019-08-10","c5j46y1h33xjfya","false","3814884265-exa-6033908972-mple","3813.6100000000442","[25,59,80,70,22]","65","69.66666666666666","[""#005BA8"",""#6F9CA4"",""#DA7100"",""#FF4100"",""#38A600""]","[""blue"",""grey"",""orange"",""red"",""green""]","learning","[0,0.3333333333333333,0.3333333333333333,0.3333333333333333,0]"
"1883.234999999957","","","wizard-gem-trial","31","197698","0.0-31.0","wizard_gems","","","","2019-08-15T20:27:36Z","2019-08-15T20:36:25Z","528716","150.135.165.121","2019-08-10","c5j46y1h33xjfya","false","3814884265-exa-6033908972-mple","3897.399999999965","[74,16,42,97,23]","71","51.66666666666666","[""#005BA8"",""#6F9CA4"",""#DA7100"",""#FF4100"",""#38A600""]","[""blue"",""grey"",""orange"",""red"",""green""]","learning","[0,0.3333333333333333,0.3333333333333333,0.3333333333333333,0]"
"2946.500000000029","","","wizard-gem-trial","32","203165","0.0-32.0","wizard_gems","","","","2019-08-15T20:27:36Z","2019-08-15T20:36:25Z","528716","150.135.165.121","2019-08-10","c5j46y1h33xjfya","false","3814884265-exa-6033908972-mple","4956.785000000033","[79,72,81,90,14]","56","81","[""#005BA8"",""#6F9CA4"",""#DA7100"",""#FF4100"",""#38A600""]","[""blue"",""grey"",""orange"",""red"",""green""]","learning","[0,0.3333333333333333,0.3333333333333333,0.3333333333333333,0]"
"1260.0849999999919","","","wizard-gem-trial","33","206945","0.0-33.0","wizard_gems","","","","2019-08-15T20:27:36Z","2019-08-15T20:36:25Z","528716","150.135.165.121","2019-08-10","c5j46y1h33xjfya","false","3814884265-exa-6033908972-mple","3270.804999999993","[6,82,69,3,96]","68","51.33333333333333","[""#005BA8"",""#6F9CA4"",""#DA7100"",""#FF4100"",""#38A600""]","[""blue"",""grey"",""orange"",""red"",""green""]","learning","[0,0.3333333333333333,0.3333333333333333,0.3333333333333333,0]"
"979.6600000000326","","","wizard-gem-trial","34","210445","0.0-34.0","wizard_gems","","","","2019-08-15T20:27:36Z","2019-08-15T20:36:25Z","528716","150.135.165.121","2019-08-10","c5j46y1h33xjfya","false","3814884265-exa-6033908972-mple","2989.485000000015","[95,76,21,75,61]","63","57.33333333333333","[""#005BA8"",""#6F9CA4"",""#DA7100"",""#FF4100"",""#38A600""]","[""blue"",""grey"",""orange"",""red"",""green""]","learning","[0,0.3333333333333333,0.3333333333333333,0.3333333333333333,0]"
"1100.304999999993","","","wizard-gem-trial","35","214055","0.0-35.0","wizard_gems","","","","2019-08-15T20:27:36Z","2019-08-15T20:36:25Z","528716","150.135.165.121","2019-08-10","c5j46y1h33xjfya","false","3814884265-exa-6033908972-mple","3103.2600000000384","[37,88,24,23,22]","63","44.99999999999999","[""#005BA8"",""#6F9CA4"",""#DA7100"",""#FF4100"",""#38A600""]","[""blue"",""grey"",""orange"",""red"",""green""]","learning","[0,0.3333333333333333,0.3333333333333333,0.3333333333333333,0]"
"2622.045000000013","","","wizard-gem-trial","36","219190","0.0-36.0","wizard_gems","","","","2019-08-15T20:27:36Z","2019-08-15T20:36:25Z","528716","150.135.165.121","2019-08-10","c5j46y1h33xjfya","false","3814884265-exa-6033908972-mple","4632.130000000034","[91,14,55,44,45]","46","37.666666666666664","[""#005BA8"",""#6F9CA4"",""#DA7100"",""#FF4100"",""#38A600""]","[""blue"",""grey"",""orange"",""red"",""green""]","learning","[0,0.3333333333333333,0.3333333333333333,0.3333333333333333,0]"
"2867.8550000000105","","","wizard-gem-trial","37","224584","0.0-37.0","wizard_gems","","","","2019-08-15T20:27:36Z","2019-08-15T20:36:25Z","528716","150.135.165.121","2019-08-10","c5j46y1h33xjfya","false","3814884265-exa-6033908972-mple","4877.195000000007","[15,65,32,89,27]","52","61.99999999999999","[""#005BA8"",""#6F9CA4"",""#DA7100"",""#FF4100"",""#38A600""]","[""blue"",""grey"",""orange"",""red"",""green""]","learning","[0,0.3333333333333333,0.3333333333333333,0.3333333333333333,0]"
"2893.4000000000524","","","wizard-gem-trial","38","229985","0.0-38.0","wizard_gems","","","","2019-08-15T20:27:36Z","2019-08-15T20:36:25Z","528716","150.135.165.121","2019-08-10","c5j46y1h33xjfya","false","3814884265-exa-6033908972-mple","4894.780000000028","[41,57,37,82,32]","50","58.666666666666664","[""#005BA8"",""#6F9CA4"",""#DA7100"",""#FF4100"",""#38A600""]","[""blue"",""grey"",""orange"",""red"",""green""]","learning","[0,0.3333333333333333,0.3333333333333333,0.3333333333333333,0]"
"1759.5249999999942","","","wizard-gem-trial","39","234267","0.0-39.0","wizard_gems","","","","2019-08-15T20:27:36Z","2019-08-15T20:36:25Z","528716","150.135.165.121","2019-08-10","c5j46y1h33xjfya","false","3814884265-exa-6033908972-mple","3774.569999999978","[84,20,72,64,41]","47","52","[""#005BA8"",""#6F9CA4"",""#DA7100"",""#FF4100"",""#38A600""]","[""blue"",""grey"",""orange"",""red"",""green""]","learning","[0,0.3333333333333333,0.3333333333333333,0.3333333333333333,0]"
"1547.4449999999779","","","wizard-gem-trial","40","238331","0.0-40.0","wizard_gems","","","","2019-08-15T20:27:36Z","2019-08-15T20:36:25Z","528716","150.135.165.121","2019-08-10","c5j46y1h33xjfya","false","3814884265-exa-6033908972-mple","3556.649999999994","[98,82,85,14,24]","43","60.33333333333333","[""#005BA8"",""#6F9CA4"",""#DA7100"",""#FF4100"",""#38A600""]","[""blue"",""grey"",""orange"",""red"",""green""]","learning","[0,0.3333333333333333,0.3333333333333333,0.3333333333333333,0]"
"2675.6050000000105","","","wizard-gem-trial","41","243531","0.0-41.0","wizard_gems","","","","2019-08-15T20:27:36Z","2019-08-15T20:36:25Z","528716","150.135.165.121","2019-08-10","c5j46y1h33xjfya","false","3814884265-exa-6033908972-mple","4679.399999999965","[31,99,48,23,56]","65","56.666666666666664","[""#005BA8"",""#6F9CA4"",""#DA7100"",""#FF4100"",""#38A600""]","[""blue"",""grey"",""orange"",""red"",""green""]","learning","[0,0.3333333333333333,0.3333333333333333,0.3333333333333333,0]"
"1592.1749999999884","","","wizard-gem-trial","42","247638","0.0-42.0","wizard_gems","","","","2019-08-15T20:27:36Z","2019-08-15T20:36:25Z","528716","150.135.165.121","2019-08-10","c5j46y1h33xjfya","false","3814884265-exa-6033908972-mple","3592.929999999964","[29,29,58,13,83]","56","33.333333333333336","[""#005BA8"",""#6F9CA4"",""#DA7100"",""#FF4100"",""#38A600""]","[""blue"",""grey"",""orange"",""red"",""green""]","learning","[0,0.3333333333333333,0.3333333333333333,0.3333333333333333,0]"
"1367.8450000000012","","","wizard-gem-trial","43","251522","0.0-43.0","wizard_gems","","","","2019-08-15T20:27:36Z","2019-08-15T20:36:25Z","528716","150.135.165.121","2019-08-10","c5j46y1h33xjfya","false","3814884265-exa-6033908972-mple","3377.8300000000163","[59,74,29,43,71]","47","48.66666666666666","[""#005BA8"",""#6F9CA4"",""#DA7100"",""#FF4100"",""#38A600""]","[""blue"",""grey"",""orange"",""red"",""green""]","learning","[0,0.3333333333333333,0.3333333333333333,0.3333333333333333,0]"
"1240.0299999999988","","","wizard-gem-trial","44","255270","0.0-44.0","wizard_gems","","","","2019-08-15T20:27:36Z","2019-08-15T20:36:25Z","528716","150.135.165.121","2019-08-10","c5j46y1h33xjfya","false","3814884265-exa-6033908972-mple","3241.514999999985","[3,27,44,43,31]","33","38","[""#005BA8"",""#6F9CA4"",""#DA7100"",""#FF4100"",""#38A600""]","[""blue"",""grey"",""orange"",""red"",""green""]","learning","[0,0.3333333333333333,0.3333333333333333,0.3333333333333333,0]"
"1621.9700000000594","","","wizard-gem-trial","45","259403","0.0-45.0","wizard_gems","","","","2019-08-15T20:27:36Z","2019-08-15T20:36:25Z","528716","150.135.165.121","2019-08-10","c5j46y1h33xjfya","false","3814884265-exa-6033908972-mple","3624.82500000007","[48,86,62,30,99]","54","59.33333333333333","[""#005BA8"",""#6F9CA4"",""#DA7100"",""#FF4100"",""#38A600""]","[""blue"",""grey"",""orange"",""red"",""green""]","learning","[0,0.3333333333333333,0.3333333333333333,0.3333333333333333,0]"
"1319.0199999999895","","","wizard-gem-trial","46","263232","0.0-46.0","wizard_gems","","","","2019-08-15T20:27:36Z","2019-08-15T20:36:25Z","528716","150.135.165.121","2019-08-10","c5j46y1h33xjfya","false","3814884265-exa-6033908972-mple","3320.4100000000035","[6,9,85,28,27]","31","40.666666666666664","[""#005BA8"",""#6F9CA4"",""#DA7100"",""#FF4100"",""#38A600""]","[""blue"",""grey"",""orange"",""red"",""green""]","learning","[0,0.3333333333333333,0.3333333333333333,0.3333333333333333,0]"
"1168.0250000000233","","","wizard-gem-trial","47","266919","0.0-47.0","wizard_gems","","","","2019-08-15T20:27:36Z","2019-08-15T20:36:25Z","528716","150.135.165.121","2019-08-10","c5j46y1h33xjfya","false","3814884265-exa-6033908972-mple","3173.2449999999953","[12,63,59,91,36]","43","71","[""#005BA8"",""#6F9CA4"",""#DA7100"",""#FF4100"",""#38A600""]","[""blue"",""grey"",""orange"",""red"",""green""]","learning","[0,0.3333333333333333,0.3333333333333333,0.3333333333333333,0]"
"2785.1450000000186","","","wizard-gem-trial","48","272219","0.0-48.0","wizard_gems","","","","2019-08-15T20:27:36Z","2019-08-15T20:36:25Z","528716","150.135.165.121","2019-08-10","c5j46y1h33xjfya","false","3814884265-exa-6033908972-mple","4790.265000000014","[17,10,89,28,76]","43","42.33333333333333","[""#005BA8"",""#6F9CA4"",""#DA7100"",""#FF4100"",""#38A600""]","[""blue"",""grey"",""orange"",""red"",""green""]","learning","[0,0.3333333333333333,0.3333333333333333,0.3333333333333333,0]"
"1610.2350000000442","","","wizard-gem-trial","49","276354","0.0-49.0","wizard_gems","","","","2019-08-15T20:27:36Z","2019-08-15T20:36:25Z","528716","150.135.165.121","2019-08-10","c5j46y1h33xjfya","false","3814884265-exa-6033908972-mple","3625.615000000049","[31,19,43,37,64]","40","33","[""#005BA8"",""#6F9CA4"",""#DA7100"",""#FF4100"",""#38A600""]","[""blue"",""grey"",""orange"",""red"",""green""]","learning","[0,0.3333333333333333,0.3333333333333333,0.3333333333333333,0]"
"4337.590000000026","","","wizard-gem-trial","50","283207","0.0-50.0","wizard_gems","","","","2019-08-15T20:27:36Z","2019-08-15T20:36:25Z","528716","150.135.165.121","2019-08-10","c5j46y1h33xjfya","false","3814884265-exa-6033908972-mple","6345.255000000005","[0,97,58,56,78]","34","70.33333333333331","[""#005BA8"",""#6F9CA4"",""#DA7100"",""#FF4100"",""#38A600""]","[""blue"",""grey"",""orange"",""red"",""green""]","learning","[0,0.3333333333333333,0.3333333333333333,0.3333333333333333,0]"
"3230.4199999999837","","","wizard-gem-trial","51","288955","0.0-51.0","wizard_gems","","","","2019-08-15T20:27:36Z","2019-08-15T20:36:25Z","528716","150.135.165.121","2019-08-10","c5j46y1h33xjfya","false","3814884265-exa-6033908972-mple","5241.544999999984","[95,83,96,10,57]","59","63","[""#005BA8"",""#6F9CA4"",""#DA7100"",""#FF4100"",""#38A600""]","[""blue"",""grey"",""orange"",""red"",""green""]","learning","[0,0.3333333333333333,0.3333333333333333,0.3333333333333333,0]"
"2449.1300000000047","","","wizard-gem-trial","52","293924","0.0-52.0","wizard_gems","","","","2019-08-15T20:27:36Z","2019-08-15T20:36:25Z","528716","150.135.165.121","2019-08-10","c5j46y1h33xjfya","false","3814884265-exa-6033908972-mple","4461.170000000042","[56,40,64,17,31]","41","40.33333333333333","[""#005BA8"",""#6F9CA4"",""#DA7100"",""#FF4100"",""#38A600""]","[""blue"",""grey"",""orange"",""red"",""green""]","learning","[0,0.3333333333333333,0.3333333333333333,0.3333333333333333,0]"
"7415.515000000072","","","wizard-gem-trial","53","303862","0.0-53.0","wizard_gems","","","","2019-08-15T20:27:36Z","2019-08-15T20:36:25Z","528716","150.135.165.121","2019-08-10","c5j46y1h33xjfya","false","3814884265-exa-6033908972-mple","9416.16000000009","[7,62,84,39,24]","22","61.666666666666664","[""#005BA8"",""#6F9CA4"",""#DA7100"",""#FF4100"",""#38A600""]","[""blue"",""grey"",""orange"",""red"",""green""]","learning","[0,0.3333333333333333,0.3333333333333333,0.3333333333333333,0]"
"8289.955000000016","","","wizard-gem-trial","54","314680","0.0-54.0","wizard_gems","","","","2019-08-15T20:27:36Z","2019-08-15T20:36:25Z","528716","150.135.165.121","2019-08-10","c5j46y1h33xjfya","false","3814884265-exa-6033908972-mple","10304.415000000037","[7,30,75,88,58]","28","64.33333333333333","[""#005BA8"",""#6F9CA4"",""#DA7100"",""#FF4100"",""#38A600""]","[""blue"",""grey"",""orange"",""red"",""green""]","learning","[0,0.3333333333333333,0.3333333333333333,0.3333333333333333,0]"
"6940.910000000033","","","wizard-gem-trial","55","324131","0.0-55.0","wizard_gems","","","","2019-08-15T20:27:36Z","2019-08-15T20:36:25Z","528716","150.135.165.121","2019-08-10","c5j46y1h33xjfya","false","3814884265-exa-6033908972-mple","8946.665000000037","[90,15,39,22,41]","46","25.333333333333332","[""#005BA8"",""#6F9CA4"",""#DA7100"",""#FF4100"",""#38A600""]","[""blue"",""grey"",""orange"",""red"",""green""]","learning","[0,0.3333333333333333,0.3333333333333333,0.3333333333333333,0]"
"1420.2300000000396","","","wizard-gem-trial","56","328070","0.0-56.0","wizard_gems","","","","2019-08-15T20:27:36Z","2019-08-15T20:36:25Z","528716","150.135.165.121","2019-08-10","c5j46y1h33xjfya","false","3814884265-exa-6033908972-mple","3423.9000000000233","[62,39,86,74,93]","42","66.33333333333333","[""#005BA8"",""#6F9CA4"",""#DA7100"",""#FF4100"",""#38A600""]","[""blue"",""grey"",""orange"",""red"",""green""]","learning","[0,0.3333333333333333,0.3333333333333333,0.3333333333333333,0]"
"1769.9349999999977","","","wizard-gem-trial","57","332359","0.0-57.0","wizard_gems","","","","2019-08-15T20:27:36Z","2019-08-15T20:36:25Z","528716","150.135.165.121","2019-08-10","c5j46y1h33xjfya","false","3814884265-exa-6033908972-mple","3780.515000000014","[14,67,88,4,81]","54","53","[""#005BA8"",""#6F9CA4"",""#DA7100"",""#FF4100"",""#38A600""]","[""blue"",""grey"",""orange"",""red"",""green""]","learning","[0,0.3333333333333333,0.3333333333333333,0.3333333333333333,0]"
"1619.984999999986","","","wizard-gem-trial","58","336505","0.0-58.0","wizard_gems","","","","2019-08-15T20:27:36Z","2019-08-15T20:36:25Z","528716","150.135.165.121","2019-08-10","c5j46y1h33xjfya","false","3814884265-exa-6033908972-mple","3628.804999999993","[40,88,17,69,61]","51","58","[""#005BA8"",""#6F9CA4"",""#DA7100"",""#FF4100"",""#38A600""]","[""blue"",""grey"",""orange"",""red"",""green""]","learning","[0,0.3333333333333333,0.3333333333333333,0.3333333333333333,0]"
"1992.0649999999441","","","wizard-gem-trial","59","341010","0.0-59.0","wizard_gems","","","","2019-08-15T20:27:36Z","2019-08-15T20:36:25Z","528716","150.135.165.121","2019-08-10","c5j46y1h33xjfya","false","3814884265-exa-6033908972-mple","3998.759999999951","[66,21,34,80,95]","57","45","[""#005BA8"",""#6F9CA4"",""#DA7100"",""#FF4100"",""#38A600""]","[""blue"",""grey"",""orange"",""red"",""green""]","learning","[0,0.3333333333333333,0.3333333333333333,0.3333333333333333,0]"
"4680.455000000016","","","wizard-gem-trial","60","348221","0.0-60.0","wizard_gems","","","","2019-08-15T20:27:36Z","2019-08-15T20:36:25Z","528716","150.135.165.121","2019-08-10","c5j46y1h33xjfya","false","3814884265-exa-6033908972-mple","6693.90499999997","[73,79,15,65,81]","56","53","[""#005BA8"",""#6F9CA4"",""#DA7100"",""#FF4100"",""#38A600""]","[""blue"",""grey"",""orange"",""red"",""green""]","learning","[0,0.3333333333333333,0.3333333333333333,0.3333333333333333,0]"
"2161.929999999935","","","wizard-gem-trial","61","352902","0.0-61.0","wizard_gems","","","","2019-08-15T20:27:36Z","2019-08-15T20:36:25Z","528716","150.135.165.121","2019-08-10","c5j46y1h33xjfya","false","3814884265-exa-6033908972-mple","4174.704999999958","[58,73,49,40,53]","53","54","[""#005BA8"",""#6F9CA4"",""#DA7100"",""#FF4100"",""#38A600""]","[""blue"",""grey"",""orange"",""red"",""green""]","learning","[0,0.3333333333333333,0.3333333333333333,0.3333333333333333,0]"
"3429.2799999999697","","","wizard-gem-trial","62","358849","0.0-62.0","wizard_gems","","","","2019-08-15T20:27:36Z","2019-08-15T20:36:25Z","528716","150.135.165.121","2019-08-10","c5j46y1h33xjfya","false","3814884265-exa-6033908972-mple","5439.15499999997","[16,51,20,73,59]","47","48","[""#005BA8"",""#6F9CA4"",""#DA7100"",""#FF4100"",""#38A600""]","[""blue"",""grey"",""orange"",""red"",""green""]","learning","[0,0.3333333333333333,0.3333333333333333,0.3333333333333333,0]"
"5307.579999999958","","","wizard-gem-trial","63","366701","0.0-63.0","wizard_gems","","","","2019-08-15T20:27:36Z","2019-08-15T20:36:25Z","528716","150.135.165.121","2019-08-10","c5j46y1h33xjfya","false","3814884265-exa-6033908972-mple","7318.260000000009","[3,98,7,92,81]","54","65.66666666666666","[""#005BA8"",""#6F9CA4"",""#DA7100"",""#FF4100"",""#38A600""]","[""blue"",""grey"",""orange"",""red"",""green""]","learning","[0,0.3333333333333333,0.3333333333333333,0.3333333333333333,0]"
"1168.9899999999907","","","wizard-gem-trial","64","370383","0.0-64.0","wizard_gems","","","","2019-08-15T20:27:36Z","2019-08-15T20:36:25Z","528716","150.135.165.121","2019-08-10","c5j46y1h33xjfya","false","3814884265-exa-6033908972-mple","3171.289999999979","[34,63,20,23,88]","59","35.33333333333333","[""#005BA8"",""#6F9CA4"",""#DA7100"",""#FF4100"",""#38A600""]","[""blue"",""grey"",""orange"",""red"",""green""]","learning","[0,0.3333333333333333,0.3333333333333333,0.3333333333333333,0]"
"897.4749999999767","","","wizard-gem-trial","65","373806","0.0-65.0","wizard_gems","","","","2019-08-15T20:27:36Z","2019-08-15T20:36:25Z","528716","150.135.165.121","2019-08-10","c5j46y1h33xjfya","false","3814884265-exa-6033908972-mple","2911.3649999999907","[59,24,81,80,3]","47","61.666666666666664","[""#005BA8"",""#6F9CA4"",""#DA7100"",""#FF4100"",""#38A600""]","[""blue"",""grey"",""orange"",""red"",""green""]","learning","[0,0.3333333333333333,0.3333333333333333,0.3333333333333333,0]"
"2746.0400000000373","","","wizard-gem-trial","66","379069","0.0-66.0","wizard_gems","","","","2019-08-15T20:27:36Z","2019-08-15T20:36:25Z","528716","150.135.165.121","2019-08-10","c5j46y1h33xjfya","false","3814884265-exa-6033908972-mple","4756.175000000047","[75,53,11,67,16]","36","43.666666666666664","[""#005BA8"",""#6F9CA4"",""#DA7100"",""#FF4100"",""#38A600""]","[""blue"",""grey"",""orange"",""red"",""green""]","learning","[0,0.3333333333333333,0.3333333333333333,0.3333333333333333,0]"
"861.3399999999674","","","wizard-gem-trial","67","382463","0.0-67.0","wizard_gems","","","","2019-08-15T20:27:36Z","2019-08-15T20:36:25Z","528716","150.135.165.121","2019-08-10","c5j46y1h33xjfya","false","3814884265-exa-6033908972-mple","2876.75","[41,37,73,9,72]","42","39.666666666666664","[""#005BA8"",""#6F9CA4"",""#DA7100"",""#FF4100"",""#38A600""]","[""blue"",""grey"",""orange"",""red"",""green""]","learning","[0,0.3333333333333333,0.3333333333333333,0.3333333333333333,0]"
"861.3399999999674","","","wizard-gem-trial","68","383291","0.0-68.0","wizard_gems","","","","2019-08-15T20:27:36Z","2019-08-15T20:36:25Z","528716","150.135.165.121","2019-08-10","c5j46y1h33xjfya","false","3814884265-exa-6033908972-mple","3704.554999999993","[41,37,73,9,72]","42","39.666666666666664","[""#005BA8"",""#6F9CA4"",""#DA7100"",""#FF4100"",""#38A600""]","[""blue"",""grey"",""orange"",""red"",""green""]","learning","[0,0.3333333333333333,0.3333333333333333,0.3333333333333333,0]"
"3475.295000000042","","","wizard-gem-trial","69","389274","0.0-69.0","wizard_gems","","","","2019-08-15T20:27:36Z","2019-08-15T20:36:25Z","528716","150.135.165.121","2019-08-10","c5j46y1h33xjfya","false","3814884265-exa-6033908972-mple","5479.114999999991","[11,100,19,94,20]","49","71","[""#005BA8"",""#6F9CA4"",""#DA7100"",""#FF4100"",""#38A600""]","[""blue"",""grey"",""orange"",""red"",""green""]","learning","[0,0.3333333333333333,0.3333333333333333,0.3333333333333333,0]"
"3900.6350000000093","","","wizard-gem-trial","70","395685","0.0-70.0","wizard_gems","","","","2019-08-15T20:27:36Z","2019-08-15T20:36:25Z","528716","150.135.165.121","2019-08-10","c5j46y1h33xjfya","false","3814884265-exa-6033908972-mple","5906.415000000037","[84,91,64,82,67]","73","79","[""#005BA8"",""#6F9CA4"",""#DA7100"",""#FF4100"",""#38A600""]","[""blue"",""grey"",""orange"",""red"",""green""]","learning","[0,0.3333333333333333,0.3333333333333333,0.3333333333333333,0]"
"2999.960000000021","","","wizard-gem-trial","71","401195","0.0-71.0","wizard_gems","","","","2019-08-15T20:27:36Z","2019-08-15T20:36:25Z","528716","150.135.165.121","2019-08-10","c5j46y1h33xjfya","false","3814884265-exa-6033908972-mple","5000.29999999993","[0,6,81,23,38]","64","36.666666666666664","[""#005BA8"",""#6F9CA4"",""#DA7100"",""#FF4100"",""#38A600""]","[""blue"",""grey"",""orange"",""red"",""green""]","learning","[0,0.3333333333333333,0.3333333333333333,0.3333333333333333,0]"
"2999.960000000021","","","wizard-gem-trial","72","401927","0.0-72.0","wizard_gems","","","","2019-08-15T20:27:36Z","2019-08-15T20:36:25Z","528716","150.135.165.121","2019-08-10","c5j46y1h33xjfya","false","3814884265-exa-6033908972-mple","5733.130000000005","[0,6,81,23,38]","64","36.666666666666664","[""#005BA8"",""#6F9CA4"",""#DA7100"",""#FF4100"",""#38A600""]","[""blue"",""grey"",""orange"",""red"",""green""]","learning","[0,0.3333333333333333,0.3333333333333333,0.3333333333333333,0]"
"982.1150000000489","","","wizard-gem-trial","73","405427","0.0-73.0","wizard_gems","","","","2019-08-15T20:27:36Z","2019-08-15T20:36:25Z","528716","150.135.165.121","2019-08-10","c5j46y1h33xjfya","false","3814884265-exa-6033908972-mple","2982.8499999999767","[51,37,48,19,69]","62","34.666666666666664","[""#005BA8"",""#6F9CA4"",""#DA7100"",""#FF4100"",""#38A600""]","[""blue"",""grey"",""orange"",""red"",""green""]","learning","[0,0.3333333333333333,0.3333333333333333,0.3333333333333333,0]"
"916.7750000000233","","","wizard-gem-trial","74","408863","0.0-74.0","wizard_gems","","","","2019-08-15T20:27:36Z","2019-08-15T20:36:25Z","528716","150.135.165.121","2019-08-10","c5j46y1h33xjfya","false","3814884265-exa-6033908972-mple","2917.3150000000023","[69,44,3,83,27]","41","43.33333333333333","[""#005BA8"",""#6F9CA4"",""#DA7100"",""#FF4100"",""#38A600""]","[""blue"",""grey"",""orange"",""red"",""green""]","learning","[0,0.3333333333333333,0.3333333333333333,0.3333333333333333,0]"
"2050.3499999999767","","","wizard-gem-trial","75","413430","0.0-75.0","wizard_gems","","","","2019-08-15T20:27:36Z","2019-08-15T20:36:25Z","528716","150.135.165.121","2019-08-10","c5j46y1h33xjfya","false","3814884265-exa-6033908972-mple","4062.9250000000466","[86,44,97,60,65]","66","67","[""#005BA8"",""#6F9CA4"",""#DA7100"",""#FF4100"",""#38A600""]","[""blue"",""grey"",""orange"",""red"",""green""]","learning","[0,0.3333333333333333,0.3333333333333333,0.3333333333333333,0]"
"2747.630000000063","","","wizard-gem-trial","76","418692","0.0-76.0","wizard_gems","","","","2019-08-15T20:27:36Z","2019-08-15T20:36:25Z","528716","150.135.165.121","2019-08-10","c5j46y1h33xjfya","false","3814884265-exa-6033908972-mple","4758.684999999998","[46,93,35,50,46]","53","59.33333333333333","[""#005BA8"",""#6F9CA4"",""#DA7100"",""#FF4100"",""#38A600""]","[""blue"",""grey"",""orange"",""red"",""green""]","learning","[0,0.3333333333333333,0.3333333333333333,0.3333333333333333,0]"
"1494.225000000035","","","wizard-gem-trial","77","422718","0.0-77.0","wizard_gems","","","","2019-08-15T20:27:36Z","2019-08-15T20:36:25Z","528716","150.135.165.121","2019-08-10","c5j46y1h33xjfya","false","3814884265-exa-6033908972-mple","3507.770000000077","[12,91,47,87,41]","48","75","[""#005BA8"",""#6F9CA4"",""#DA7100"",""#FF4100"",""#38A600""]","[""blue"",""grey"",""orange"",""red"",""green""]","learning","[0,0.3333333333333333,0.3333333333333333,0.3333333333333333,0]"
"1588.015000000014","","","wizard-gem-trial","78","426847","0.0-78.0","wizard_gems","","","","2019-08-15T20:27:36Z","2019-08-15T20:36:25Z","528716","150.135.165.121","2019-08-10","c5j46y1h33xjfya","false","3814884265-exa-6033908972-mple","3603.7999999999884","[7,70,57,21,97]","65","49.33333333333333","[""#005BA8"",""#6F9CA4"",""#DA7100"",""#FF4100"",""#38A600""]","[""blue"",""grey"",""orange"",""red"",""green""]","learning","[0,0.3333333333333333,0.3333333333333333,0.3333333333333333,0]"
"2006.8300000000745","","","wizard-gem-trial","79","431371","0.0-79.0","wizard_gems","","","","2019-08-15T20:27:36Z","2019-08-15T20:36:25Z","528716","150.135.165.121","2019-08-10","c5j46y1h33xjfya","false","3814884265-exa-6033908972-mple","4010.8700000000536","[48,84,82,44,8]","52","70","[""#005BA8"",""#6F9CA4"",""#DA7100"",""#FF4100"",""#38A600""]","[""blue"",""grey"",""orange"",""red"",""green""]","learning","[0,0.3333333333333333,0.3333333333333333,0.3333333333333333,0]"
"4164.030000000028","","","wizard-gem-trial","80","438049","0.0-80.0","wizard_gems","","","","2019-08-15T20:27:36Z","2019-08-15T20:36:25Z","528716","150.135.165.121","2019-08-10","c5j46y1h33xjfya","false","3814884265-exa-6033908972-mple","6171.349999999977","[7,65,5,8,65]","48","26","[""#005BA8"",""#6F9CA4"",""#DA7100"",""#FF4100"",""#38A600""]","[""blue"",""grey"",""orange"",""red"",""green""]","learning","[0,0.3333333333333333,0.3333333333333333,0.3333333333333333,0]"
"4164.030000000028","","","wizard-gem-trial","81","438653","0.0-81.0","wizard_gems","","","","2019-08-15T20:27:36Z","2019-08-15T20:36:25Z","528716","150.135.165.121","2019-08-10","c5j46y1h33xjfya","false","3814884265-exa-6033908972-mple","6775.265000000014","[7,65,5,8,65]","48","26","[""#005BA8"",""#6F9CA4"",""#DA7100"",""#FF4100"",""#38A600""]","[""blue"",""grey"",""orange"",""red"",""green""]","learning","[0,0.3333333333333333,0.3333333333333333,0.3333333333333333,0]"
"1476.0449999999837","","","wizard-gem-trial","82","442649","0.0-82.0","wizard_gems","","","","2019-08-15T20:27:36Z","2019-08-15T20:36:25Z","528716","150.135.165.121","2019-08-10","c5j46y1h33xjfya","false","3814884265-exa-6033908972-mple","3488.5149999999558","[77,18,70,55,60]","33","47.666666666666664","[""#005BA8"",""#6F9CA4"",""#DA7100"",""#FF4100"",""#38A600""]","[""blue"",""grey"",""orange"",""red"",""green""]","learning","[0,0.3333333333333333,0.3333333333333333,0.3333333333333333,0]"
"1594.3149999999441","","","wizard-gem-trial","83","446766","0.0-83.0","wizard_gems","","","","2019-08-15T20:27:36Z","2019-08-15T20:36:25Z","528716","150.135.165.121","2019-08-10","c5j46y1h33xjfya","false","3814884265-exa-6033908972-mple","3609.4550000000745","[82,55,49,70,45]","35","58","[""#005BA8"",""#6F9CA4"",""#DA7100"",""#FF4100"",""#38A600""]","[""blue"",""grey"",""orange"",""red"",""green""]","learning","[0,0.3333333333333333,0.3333333333333333,0.3333333333333333,0]"
"1864.6199999999371","","","wizard-gem-trial","84","451155","0.0-84.0","wizard_gems","","","","2019-08-15T20:27:36Z","2019-08-15T20:36:25Z","528716","150.135.165.121","2019-08-10","c5j46y1h33xjfya","false","3814884265-exa-6033908972-mple","3878.54999999993","[25,51,100,31,92]","54","60.66666666666666","[""#005BA8"",""#6F9CA4"",""#DA7100"",""#FF4100"",""#38A600""]","[""blue"",""grey"",""orange"",""red"",""green""]","learning","[0,0.3333333333333333,0.3333333333333333,0.3333333333333333,0]"
"1615.024999999965","","","wizard-gem-trial","85","455284","0.0-85.0","wizard_gems","","","","2019-08-15T20:27:36Z","2019-08-15T20:36:25Z","528716","150.135.165.121","2019-08-10","c5j46y1h33xjfya","false","3814884265-exa-6033908972-mple","3623.589999999909","[12,36,0,19,37]","35","18.333333333333332","[""#005BA8"",""#6F9CA4"",""#DA7100"",""#FF4100"",""#38A600""]","[""blue"",""grey"",""orange"",""red"",""green""]","learning","[0,0.3333333333333333,0.3333333333333333,0.3333333333333333,0]"
"4350.194999999949","","","wizard-gem-trial","86","462152","0.0-86.0","wizard_gems","","","","2019-08-15T20:27:36Z","2019-08-15T20:36:25Z","528716","150.135.165.121","2019-08-10","c5j46y1h33xjfya","false","3814884265-exa-6033908972-mple","6357.260000000009","[4,73,87,92,32]","47","84","[""#005BA8"",""#6F9CA4"",""#DA7100"",""#FF4100"",""#38A600""]","[""blue"",""grey"",""orange"",""red"",""green""]","learning","[0,0.3333333333333333,0.3333333333333333,0.3333333333333333,0]"
"2106.7750000000815","","","wizard-gem-trial","87","466773","0.0-87.0","wizard_gems","","","","2019-08-15T20:27:36Z","2019-08-15T20:36:25Z","528716","150.135.165.121","2019-08-10","c5j46y1h33xjfya","false","3814884265-exa-6033908972-mple","4113.290000000037","[18,43,88,13,68]","72","48","[""#005BA8"",""#6F9CA4"",""#DA7100"",""#FF4100"",""#38A600""]","[""blue"",""grey"",""orange"",""red"",""green""]","learning","[0,0.3333333333333333,0.3333333333333333,0.3333333333333333,0]"
"1593.8100000000559","","","wizard-gem-trial","88","470893","0.0-88.0","wizard_gems","","","","2019-08-15T20:27:36Z","2019-08-15T20:36:25Z","528716","150.135.165.121","2019-08-10","c5j46y1h33xjfya","false","3814884265-exa-6033908972-mple","3599.045000000042","[62,7,81,22,83]","63","36.666666666666664","[""#005BA8"",""#6F9CA4"",""#DA7100"",""#FF4100"",""#38A600""]","[""blue"",""grey"",""orange"",""red"",""green""]","learning","[0,0.3333333333333333,0.3333333333333333,0.3333333333333333,0]"
"1395.8099999999977","","","wizard-gem-trial","89","474820","0.0-89.0","wizard_gems","","","","2019-08-15T20:27:36Z","2019-08-15T20:36:25Z","528716","150.135.165.121","2019-08-10","c5j46y1h33xjfya","false","3814884265-exa-6033908972-mple","3409.105000000098","[68,6,26,99,8]","45","43.666666666666664","[""#005BA8"",""#6F9CA4"",""#DA7100"",""#FF4100"",""#38A600""]","[""blue"",""grey"",""orange"",""red"",""green""]","learning","[0,0.3333333333333333,0.3333333333333333,0.3333333333333333,0]"
"3677.5400000000373","","","wizard-gem-trial","90","481016","0.0-90.0","wizard_gems","","","","2019-08-15T20:27:36Z","2019-08-15T20:36:25Z","528716","150.135.165.121","2019-08-10","c5j46y1h33xjfya","false","3814884265-exa-6033908972-mple","5689.195000000007","[80,80,47,32,89]","51","52.99999999999999","[""#005BA8"",""#6F9CA4"",""#DA7100"",""#FF4100"",""#38A600""]","[""blue"",""grey"",""orange"",""red"",""green""]","learning","[0,0.3333333333333333,0.3333333333333333,0.3333333333333333,0]"
"2203.994999999937","","","wizard-gem-trial","91","485778","0.0-91.0","wizard_gems","","","","2019-08-15T20:27:36Z","2019-08-15T20:36:25Z","528716","150.135.165.121","2019-08-10","c5j46y1h33xjfya","false","3814884265-exa-6033908972-mple","4211.194999999949","[5,30,3,57,46]","33","30","[""#005BA8"",""#6F9CA4"",""#DA7100"",""#FF4100"",""#38A600""]","[""blue"",""grey"",""orange"",""red"",""green""]","learning","[0,0.3333333333333333,0.3333333333333333,0.3333333333333333,0]"
"1834.0650000000023","","","wizard-gem-trial","92","490150","0.0-92.0","wizard_gems","","","","2019-08-15T20:27:36Z","2019-08-15T20:36:25Z","528716","150.135.165.121","2019-08-10","c5j46y1h33xjfya","false","3814884265-exa-6033908972-mple","3840.6049999999814","[16,0,57,94,0]","62","50.33333333333333","[""#005BA8"",""#6F9CA4"",""#DA7100"",""#FF4100"",""#38A600""]","[""blue"",""grey"",""orange"",""red"",""green""]","learning","[0,0.3333333333333333,0.3333333333333333,0.3333333333333333,0]"
"1359.2550000000629","","","wizard-gem-trial","93","494035","0.0-93.0","wizard_gems","","","","2019-08-15T20:27:36Z","2019-08-15T20:36:25Z","528716","150.135.165.121","2019-08-10","c5j46y1h33xjfya","false","3814884265-exa-6033908972-mple","3374.054999999993","[4,94,67,38,84]","61","66.33333333333333","[""#005BA8"",""#6F9CA4"",""#DA7100"",""#FF4100"",""#38A600""]","[""blue"",""grey"",""orange"",""red"",""green""]","learning","[0,0.3333333333333333,0.3333333333333333,0.3333333333333333,0]"
"1396.8499999999767","","","wizard-gem-trial","94","497943","0.0-94.0","wizard_gems","","","","2019-08-15T20:27:36Z","2019-08-15T20:36:25Z","528716","150.135.165.121","2019-08-10","c5j46y1h33xjfya","false","3814884265-exa-6033908972-mple","3398.829999999958","[40,57,35,72,22]","50","54.666666666666664","[""#005BA8"",""#6F9CA4"",""#DA7100"",""#FF4100"",""#38A600""]","[""blue"",""grey"",""orange"",""red"",""green""]","learning","[0,0.3333333333333333,0.3333333333333333,0.3333333333333333,0]"
"2892.9400000000605","","","wizard-gem-trial","95","503368","0.0-95.0","wizard_gems","","","","2019-08-15T20:27:36Z","2019-08-15T20:36:25Z","528716","150.135.165.121","2019-08-10","c5j46y1h33xjfya","false","3814884265-exa-6033908972-mple","4908.130000000005","[4,22,82,23,53]","49","42.33333333333333","[""#005BA8"",""#6F9CA4"",""#DA7100"",""#FF4100"",""#38A600""]","[""blue"",""grey"",""orange"",""red"",""green""]","learning","[0,0.3333333333333333,0.3333333333333333,0.3333333333333333,0]"
"2501.585000000021","","","wizard-gem-trial","96","508390","0.0-96.0","wizard_gems","","","","2019-08-15T20:27:36Z","2019-08-15T20:36:25Z","528716","150.135.165.121","2019-08-10","c5j46y1h33xjfya","false","3814884265-exa-6033908972-mple","4513.055000000051","[6,89,91,56,53]","55","78.66666666666666","[""#005BA8"",""#6F9CA4"",""#DA7100"",""#FF4100"",""#38A600""]","[""blue"",""grey"",""orange"",""red"",""green""]","learning","[0,0.3333333333333333,0.3333333333333333,0.3333333333333333,0]"
"3201.380000000121","","","wizard-gem-trial","97","514106","0.0-97.0","wizard_gems","","","","2019-08-15T20:27:36Z","2019-08-15T20:36:25Z","528716","150.135.165.121","2019-08-10","c5j46y1h33xjfya","false","3814884265-exa-6033908972-mple","5211.755000000063","[0,85,72,7,87]","63","54.666666666666664","[""#005BA8"",""#6F9CA4"",""#DA7100"",""#FF4100"",""#38A600""]","[""blue"",""grey"",""orange"",""red"",""green""]","learning","[0,0.3333333333333333,0.3333333333333333,0.3333333333333333,0]"
"1260.0599999999977","","","wizard-gem-trial","98","517877","0.0-98.0","wizard_gems","","","","2019-08-15T20:27:36Z","2019-08-15T20:36:25Z","528716","150.135.165.121","2019-08-10","c5j46y1h33xjfya","false","3814884265-exa-6033908972-mple","3266.5849999999627","[78,48,33,13,86]","53","31.333333333333332","[""#005BA8"",""#6F9CA4"",""#DA7100"",""#FF4100"",""#38A600""]","[""blue"",""grey"",""orange"",""red"",""green""]","learning","[0,0.3333333333333333,0.3333333333333333,0.3333333333333333,0]"
"981.2000000000116","","","wizard-gem-trial","99","521374","0.0-99.0","wizard_gems","","","","2019-08-15T20:27:36Z","2019-08-15T20:36:25Z","528716","150.135.165.121","2019-08-10","c5j46y1h33xjfya","false","3814884265-exa-6033908972-mple","2984.140000000014","[65,53,84,35,5]","46","57.33333333333333","[""#005BA8"",""#6F9CA4"",""#DA7100"",""#FF4100"",""#38A600""]","[""blue"",""grey"",""orange"",""red"",""green""]","learning","[0,0.3333333333333333,0.3333333333333333,0.3333333333333333,0]"
"3982.984999999986","","","wizard-gem-trial","100","527862","0.0-100.0","wizard_gems","","","","2019-08-15T20:27:36Z","2019-08-15T20:36:25Z","528716","150.135.165.121","2019-08-10","c5j46y1h33xjfya","false","3814884265-exa-6033908972-mple","5983.415000000037","[96,84,18,92,60]","62","64.66666666666666","[""#005BA8"",""#6F9CA4"",""#DA7100"",""#FF4100"",""#38A600""]","[""blue"",""grey"",""orange"",""red"",""green""]","learning","[0,0.3333333333333333,0.3333333333333333,0.3333333333333333,0]"
