"rt","url","experiment_phase","trial_type","trial_index","time_elapsed","internal_node_id","experiment_name","workerId","assignmentId","hitId","experiment_start_time","experiment_end_time","total_time","ip_address","version_date","anon_id","demo_mode","completion_code","page_rt","gem_values","response","correct_answer","gem_colors","gem_color_names","phase","gem_weights"
"187137","src/html/instructions.html","instructions","render-mustache-template","0","187217","0.0-0.0","wizard_gems","","","","2019-08-14T22:09:25Z","2019-08-14T22:23:39Z","853672","129.170.195.146","2019-08-10","jb7hfezj9naoz19","false","5880642950-exa-1613218306-mple","","","","","","","",""
"9686.774999951012","","","wizard-gem-trial","1","199410","0.0-1.0","wizard_gems","","","","2019-08-14T22:09:25Z","2019-08-14T22:23:39Z","853672","129.170.195.146","2019-08-10","jb7hfezj9naoz19","false","5880642950-exa-1613218306-mple","11687.70999996923","[74,23,30,61,23]","32","25.33333333333333","[""#6F9CA4"",""#005BA8"",""#FF4100"",""#DA7100"",""#38A600""]","[""grey"",""blue"",""red"",""orange"",""green""]","learning","[0,0.3333333333333333,0.3333333333333333,0,0.3333333333333333]"
"15626.385000010487","","","wizard-gem-trial","2","217545","0.0-2.0","wizard_gems","","","","2019-08-14T22:09:25Z","2019-08-14T22:23:39Z","853672","129.170.195.146","2019-08-10","jb7hfezj9naoz19","false","5880642950-exa-1613218306-mple","17627.24000000162","[87,22,48,32,52]","52","40.666666666666664","[""#6F9CA4"",""#005BA8"",""#FF4100"",""#DA7100"",""#38A600""]","[""grey"",""blue"",""red"",""orange"",""green""]","learning","[0,0.3333333333333333,0.3333333333333333,0,0.3333333333333333]"
"8628.610000014305","","","wizard-gem-trial","3","228680","0.0-3.0","wizard_gems","","","","2019-08-14T22:09:25Z","2019-08-14T22:23:39Z","853672","129.170.195.146","2019-08-10","jb7hfezj9naoz19","false","5880642950-exa-1613218306-mple","10628.885000012815","[18,15,4,94,93]","90","37.333333333333336","[""#6F9CA4"",""#005BA8"",""#FF4100"",""#DA7100"",""#38A600""]","[""grey"",""blue"",""red"",""orange"",""green""]","learning","[0,0.3333333333333333,0.3333333333333333,0,0.3333333333333333]"
"10080.205000005662","","","wizard-gem-trial","4","241268","0.0-4.0","wizard_gems","","","","2019-08-14T22:09:25Z","2019-08-14T22:23:39Z","853672","129.170.195.146","2019-08-10","jb7hfezj9naoz19","false","5880642950-exa-1613218306-mple","12085.030000016559","[83,27,1,61,30]","75","19.333333333333336","[""#6F9CA4"",""#005BA8"",""#FF4100"",""#DA7100"",""#38A600""]","[""grey"",""blue"",""red"",""orange"",""green""]","learning","[0,0.3333333333333333,0.3333333333333333,0,0.3333333333333333]"
"3658.4149999544024","","","wizard-gem-trial","5","247439","0.0-5.0","wizard_gems","","","","2019-08-14T22:09:25Z","2019-08-14T22:23:39Z","853672","129.170.195.146","2019-08-10","jb7hfezj9naoz19","false","5880642950-exa-1613218306-mple","5662.344999960624","[88,64,25,25,11]","55","33.33333333333333","[""#6F9CA4"",""#005BA8"",""#FF4100"",""#DA7100"",""#38A600""]","[""grey"",""blue"",""red"",""orange"",""green""]","learning","[0,0.3333333333333333,0.3333333333333333,0,0.3333333333333333]"
"6522.895000001881","","","wizard-gem-trial","6","256471","0.0-6.0","wizard_gems","","","","2019-08-14T22:09:25Z","2019-08-14T22:23:39Z","853672","129.170.195.146","2019-08-10","jb7hfezj9naoz19","false","5880642950-exa-1613218306-mple","8527.83500001533","[87,50,6,83,12]","23","22.666666666666664","[""#6F9CA4"",""#005BA8"",""#FF4100"",""#DA7100"",""#38A600""]","[""grey"",""blue"",""red"",""orange"",""green""]","learning","[0,0.3333333333333333,0.3333333333333333,0,0.3333333333333333]"
"4137.044999981299","","","wizard-gem-trial","7","263118","0.0-7.0","wizard_gems","","","","2019-08-14T22:09:25Z","2019-08-14T22:23:39Z","853672","129.170.195.146","2019-08-10","jb7hfezj9naoz19","false","5880642950-exa-1613218306-mple","6141.594999993686","[2,100,100,67,65]","76","88.33333333333331","[""#6F9CA4"",""#005BA8"",""#FF4100"",""#DA7100"",""#38A600""]","[""grey"",""blue"",""red"",""orange"",""green""]","learning","[0,0.3333333333333333,0.3333333333333333,0,0.3333333333333333]"
"2066.11499999417","","","wizard-gem-trial","8","267695","0.0-8.0","wizard_gems","","","","2019-08-14T22:09:25Z","2019-08-14T22:23:39Z","853672","129.170.195.146","2019-08-10","jb7hfezj9naoz19","false","5880642950-exa-1613218306-mple","4069.034999993164","[29,84,31,54,40]","63","51.66666666666666","[""#6F9CA4"",""#005BA8"",""#FF4100"",""#DA7100"",""#38A600""]","[""grey"",""blue"",""red"",""orange"",""green""]","learning","[0,0.3333333333333333,0.3333333333333333,0,0.3333333333333333]"
"1771.2500000488944","","","wizard-gem-trial","9","271971","0.0-9.0","wizard_gems","","","","2019-08-14T22:09:25Z","2019-08-14T22:23:39Z","853672","129.170.195.146","2019-08-10","jb7hfezj9naoz19","false","5880642950-exa-1613218306-mple","3772.0200000330806","[11,34,44,88,97]","43","58.33333333333333","[""#6F9CA4"",""#005BA8"",""#FF4100"",""#DA7100"",""#38A600""]","[""grey"",""blue"",""red"",""orange"",""green""]","learning","[0,0.3333333333333333,0.3333333333333333,0,0.3333333333333333]"
"2071.3249999680556","","","wizard-gem-trial","10","276551","0.0-10.0","wizard_gems","","","","2019-08-14T22:09:25Z","2019-08-14T22:23:39Z","853672","129.170.195.146","2019-08-10","jb7hfezj9naoz19","false","5880642950-exa-1613218306-mple","4075.009999971371","[30,48,40,14,39]","35","42.33333333333333","[""#6F9CA4"",""#005BA8"",""#FF4100"",""#DA7100"",""#38A600""]","[""grey"",""blue"",""red"",""orange"",""green""]","learning","[0,0.3333333333333333,0.3333333333333333,0,0.3333333333333333]"
"3324.625000008382","","","wizard-gem-trial","11","282380","0.0-11.0","wizard_gems","","","","2019-08-14T22:09:25Z","2019-08-14T22:23:39Z","853672","129.170.195.146","2019-08-10","jb7hfezj9naoz19","false","5880642950-exa-1613218306-mple","5325.394999992568","[57,96,63,80,10]","72","56.333333333333336","[""#6F9CA4"",""#005BA8"",""#FF4100"",""#DA7100"",""#38A600""]","[""grey"",""blue"",""red"",""orange"",""green""]","learning","[0,0.3333333333333333,0.3333333333333333,0,0.3333333333333333]"
"1468.4399999678135","","","wizard-gem-trial","12","286357","0.0-12.0","wizard_gems","","","","2019-08-14T22:09:25Z","2019-08-14T22:23:39Z","853672","129.170.195.146","2019-08-10","jb7hfezj9naoz19","false","5880642950-exa-1613218306-mple","3469.4000000017695","[41,48,97,14,85]","84","76.66666666666666","[""#6F9CA4"",""#005BA8"",""#FF4100"",""#DA7100"",""#38A600""]","[""grey"",""blue"",""red"",""orange"",""green""]","learning","[0,0.3333333333333333,0.3333333333333333,0,0.3333333333333333]"
"3495.2199999825098","","","wizard-gem-trial","13","292361","0.0-13.0","wizard_gems","","","","2019-08-14T22:09:25Z","2019-08-14T22:23:39Z","853672","129.170.195.146","2019-08-10","jb7hfezj9naoz19","false","5880642950-exa-1613218306-mple","5497.124999994412","[47,56,26,62,95]","50","58.99999999999999","[""#6F9CA4"",""#005BA8"",""#FF4100"",""#DA7100"",""#38A600""]","[""grey"",""blue"",""red"",""orange"",""green""]","learning","[0,0.3333333333333333,0.3333333333333333,0,0.3333333333333333]"
"1854.909999994561","","","wizard-gem-trial","14","296719","0.0-14.0","wizard_gems","","","","2019-08-14T22:09:25Z","2019-08-14T22:23:39Z","853672","129.170.195.146","2019-08-10","jb7hfezj9naoz19","false","5880642950-exa-1613218306-mple","3855.459999991581","[54,36,94,68,97]","93","75.66666666666666","[""#6F9CA4"",""#005BA8"",""#FF4100"",""#DA7100"",""#38A600""]","[""grey"",""blue"",""red"",""orange"",""green""]","learning","[0,0.3333333333333333,0.3333333333333333,0,0.3333333333333333]"
"5675.374999991618","","","wizard-gem-trial","15","304903","0.0-15.0","wizard_gems","","","","2019-08-14T22:09:25Z","2019-08-14T22:23:39Z","853672","129.170.195.146","2019-08-10","jb7hfezj9naoz19","false","5880642950-exa-1613218306-mple","7678.274999954738","[14,45,4,8,82]","39","43.666666666666664","[""#6F9CA4"",""#005BA8"",""#FF4100"",""#DA7100"",""#38A600""]","[""grey"",""blue"",""red"",""orange"",""green""]","learning","[0,0.3333333333333333,0.3333333333333333,0,0.3333333333333333]"
"3698.340000002645","","","wizard-gem-trial","16","311113","0.0-16.0","wizard_gems","","","","2019-08-14T22:09:25Z","2019-08-14T22:23:39Z","853672","129.170.195.146","2019-08-10","jb7hfezj9naoz19","false","5880642950-exa-1613218306-mple","5703.779999981634","[89,23,30,42,14]","27","22.33333333333333","[""#6F9CA4"",""#005BA8"",""#FF4100"",""#DA7100"",""#38A600""]","[""grey"",""blue"",""red"",""orange"",""green""]","learning","[0,0.3333333333333333,0.3333333333333333,0,0.3333333333333333]"
"3014.9100000271574","","","wizard-gem-trial","17","316636","0.0-17.0","wizard_gems","","","","2019-08-14T22:09:25Z","2019-08-14T22:23:39Z","853672","129.170.195.146","2019-08-10","jb7hfezj9naoz19","false","5880642950-exa-1613218306-mple","5015.885000000708","[29,29,16,68,94]","39","46.33333333333333","[""#6F9CA4"",""#005BA8"",""#FF4100"",""#DA7100"",""#38A600""]","[""grey"",""blue"",""red"",""orange"",""green""]","learning","[0,0.3333333333333333,0.3333333333333333,0,0.3333333333333333]"
"2604.6250000363216","","","wizard-gem-trial","18","321749","0.0-18.0","wizard_gems","","","","2019-08-14T22:09:25Z","2019-08-14T22:23:39Z","853672","129.170.195.146","2019-08-10","jb7hfezj9naoz19","false","5880642950-exa-1613218306-mple","4609.455000027083","[69,56,90,62,52]","66","66","[""#6F9CA4"",""#005BA8"",""#FF4100"",""#DA7100"",""#38A600""]","[""grey"",""blue"",""red"",""orange"",""green""]","learning","[0,0.3333333333333333,0.3333333333333333,0,0.3333333333333333]"
"2874.0749999997206","","","wizard-gem-trial","19","327142","0.0-19.0","wizard_gems","","","","2019-08-14T22:09:25Z","2019-08-14T22:23:39Z","853672","129.170.195.146","2019-08-10","jb7hfezj9naoz19","false","5880642950-exa-1613218306-mple","4876.860000018496","[28,97,36,49,1]","46","44.666666666666664","[""#6F9CA4"",""#005BA8"",""#FF4100"",""#DA7100"",""#38A600""]","[""grey"",""blue"",""red"",""orange"",""green""]","learning","[0,0.3333333333333333,0.3333333333333333,0,0.3333333333333333]"
"3555.980000004638","","","wizard-gem-trial","20","333206","0.0-20.0","wizard_gems","","","","2019-08-14T22:09:25Z","2019-08-14T22:23:39Z","853672","129.170.195.146","2019-08-10","jb7hfezj9naoz19","false","5880642950-exa-1613218306-mple","5558.030000014696","[18,76,40,80,62]","53","59.33333333333333","[""#6F9CA4"",""#005BA8"",""#FF4100"",""#DA7100"",""#38A600""]","[""grey"",""blue"",""red"",""orange"",""green""]","learning","[0,0.3333333333333333,0.3333333333333333,0,0.3333333333333333]"
"1486.4449999877252","","","wizard-gem-trial","21","337201","0.0-21.0","wizard_gems","","","","2019-08-14T22:09:25Z","2019-08-14T22:23:39Z","853672","129.170.195.146","2019-08-10","jb7hfezj9naoz19","false","5880642950-exa-1613218306-mple","3490.8249999862164","[47,30,30,93,27]","40","29","[""#6F9CA4"",""#005BA8"",""#FF4100"",""#DA7100"",""#38A600""]","[""grey"",""blue"",""red"",""orange"",""green""]","learning","[0,0.3333333333333333,0.3333333333333333,0,0.3333333333333333]"
"1523.0699999956414","","","wizard-gem-trial","22","341235","0.0-22.0","wizard_gems","","","","2019-08-14T22:09:25Z","2019-08-14T22:23:39Z","853672","129.170.195.146","2019-08-10","jb7hfezj9naoz19","false","5880642950-exa-1613218306-mple","3527.430000016466","[34,69,50,74,45]","47","54.666666666666664","[""#6F9CA4"",""#005BA8"",""#FF4100"",""#DA7100"",""#38A600""]","[""grey"",""blue"",""red"",""orange"",""green""]","learning","[0,0.3333333333333333,0.3333333333333333,0,0.3333333333333333]"
"3042.554999992717","","","wizard-gem-trial","23","346787","0.0-23.0","wizard_gems","","","","2019-08-14T22:09:25Z","2019-08-14T22:23:39Z","853672","129.170.195.146","2019-08-10","jb7hfezj9naoz19","false","5880642950-exa-1613218306-mple","5047.870000009425","[79,29,9,13,77]","24","38.33333333333333","[""#6F9CA4"",""#005BA8"",""#FF4100"",""#DA7100"",""#38A600""]","[""grey"",""blue"",""red"",""orange"",""green""]","learning","[0,0.3333333333333333,0.3333333333333333,0,0.3333333333333333]"
"2596.4700000477023","","","wizard-gem-trial","24","351889","0.0-24.0","wizard_gems","","","","2019-08-14T22:09:25Z","2019-08-14T22:23:39Z","853672","129.170.195.146","2019-08-10","jb7hfezj9naoz19","false","5880642950-exa-1613218306-mple","4597.000000008848","[41,12,91,58,28]","55","43.66666666666666","[""#6F9CA4"",""#005BA8"",""#FF4100"",""#DA7100"",""#38A600""]","[""grey"",""blue"",""red"",""orange"",""green""]","learning","[0,0.3333333333333333,0.3333333333333333,0,0.3333333333333333]"
"2357.755000004545","","","wizard-gem-trial","25","356751","0.0-25.0","wizard_gems","","","","2019-08-14T22:09:25Z","2019-08-14T22:23:39Z","853672","129.170.195.146","2019-08-10","jb7hfezj9naoz19","false","5880642950-exa-1613218306-mple","4358.1300000078045","[31,20,31,82,26]","39","25.666666666666664","[""#6F9CA4"",""#005BA8"",""#FF4100"",""#DA7100"",""#38A600""]","[""grey"",""blue"",""red"",""orange"",""green""]","learning","[0,0.3333333333333333,0.3333333333333333,0,0.3333333333333333]"
"5153.509999974631","","","wizard-gem-trial","26","364417","0.0-26.0","wizard_gems","","","","2019-08-14T22:09:25Z","2019-08-14T22:23:39Z","853672","129.170.195.146","2019-08-10","jb7hfezj9naoz19","false","5880642950-exa-1613218306-mple","7158.869999984745","[61,90,40,93,27]","77","52.33333333333333","[""#6F9CA4"",""#005BA8"",""#FF4100"",""#DA7100"",""#38A600""]","[""grey"",""blue"",""red"",""orange"",""green""]","learning","[0,0.3333333333333333,0.3333333333333333,0,0.3333333333333333]"
"4259.77000000421","","","wizard-gem-trial","27","371186","0.0-27.0","wizard_gems","","","","2019-08-14T22:09:25Z","2019-08-14T22:23:39Z","853672","129.170.195.146","2019-08-10","jb7hfezj9naoz19","false","5880642950-exa-1613218306-mple","6261.769999982789","[33,79,40,100,31]","49","50","[""#6F9CA4"",""#005BA8"",""#FF4100"",""#DA7100"",""#38A600""]","[""grey"",""blue"",""red"",""orange"",""green""]","learning","[0,0.3333333333333333,0.3333333333333333,0,0.3333333333333333]"
"3823.24499997776","","","wizard-gem-trial","28","377516","0.0-28.0","wizard_gems","","","","2019-08-14T22:09:25Z","2019-08-14T22:23:39Z","853672","129.170.195.146","2019-08-10","jb7hfezj9naoz19","false","5880642950-exa-1613218306-mple","5825.154999969527","[40,62,32,45,65]","38","52.99999999999999","[""#6F9CA4"",""#005BA8"",""#FF4100"",""#DA7100"",""#38A600""]","[""grey"",""blue"",""red"",""orange"",""green""]","learning","[0,0.3333333333333333,0.3333333333333333,0,0.3333333333333333]"
"2920.255000004545","","","wizard-gem-trial","29","382947","0.0-29.0","wizard_gems","","","","2019-08-14T22:09:25Z","2019-08-14T22:23:39Z","853672","129.170.195.146","2019-08-10","jb7hfezj9naoz19","false","5880642950-exa-1613218306-mple","4922.6900000358","[5,71,87,56,12]","58","56.666666666666664","[""#6F9CA4"",""#005BA8"",""#FF4100"",""#DA7100"",""#38A600""]","[""grey"",""blue"",""red"",""orange"",""green""]","learning","[0,0.3333333333333333,0.3333333333333333,0,0.3333333333333333]"
"3816.6399999754503","","","wizard-gem-trial","30","389271","0.0-30.0","wizard_gems","","","","2019-08-14T22:09:25Z","2019-08-14T22:23:39Z","853672","129.170.195.146","2019-08-10","jb7hfezj9naoz19","false","5880642950-exa-1613218306-mple","5819.209999986924","[34,35,29,99,96]","26","53.33333333333333","[""#6F9CA4"",""#005BA8"",""#FF4100"",""#DA7100"",""#38A600""]","[""grey"",""blue"",""red"",""orange"",""green""]","learning","[0,0.3333333333333333,0.3333333333333333,0,0.3333333333333333]"
"3036.534999962896","","","wizard-gem-trial","31","394820","0.0-31.0","wizard_gems","","","","2019-08-14T22:09:25Z","2019-08-14T22:23:39Z","853672","129.170.195.146","2019-08-10","jb7hfezj9naoz19","false","5880642950-exa-1613218306-mple","5041.8550000176765","[93,41,83,94,64]","77","62.66666666666666","[""#6F9CA4"",""#005BA8"",""#FF4100"",""#DA7100"",""#38A600""]","[""grey"",""blue"",""red"",""orange"",""green""]","learning","[0,0.3333333333333333,0.3333333333333333,0,0.3333333333333333]"
"5088.850000000093","","","wizard-gem-trial","32","402418","0.0-32.0","wizard_gems","","","","2019-08-14T22:09:25Z","2019-08-14T22:23:39Z","853672","129.170.195.146","2019-08-10","jb7hfezj9naoz19","false","5880642950-exa-1613218306-mple","7090.0649999966845","[52,100,42,1,100]","36","80.66666666666666","[""#6F9CA4"",""#005BA8"",""#FF4100"",""#DA7100"",""#38A600""]","[""grey"",""blue"",""red"",""orange"",""green""]","learning","[0,0.3333333333333333,0.3333333333333333,0,0.3333333333333333]"
"3550.359999993816","","","wizard-gem-trial","33","408475","0.0-33.0","wizard_gems","","","","2019-08-14T22:09:25Z","2019-08-14T22:23:39Z","853672","129.170.195.146","2019-08-10","jb7hfezj9naoz19","false","5880642950-exa-1613218306-mple","5551.080000004731","[95,47,69,51,86]","51","67.33333333333333","[""#6F9CA4"",""#005BA8"",""#FF4100"",""#DA7100"",""#38A600""]","[""grey"",""blue"",""red"",""orange"",""green""]","learning","[0,0.3333333333333333,0.3333333333333333,0,0.3333333333333333]"
"2489.0599999926053","","","wizard-gem-trial","34","413471","0.0-34.0","wizard_gems","","","","2019-08-14T22:09:25Z","2019-08-14T22:23:39Z","853672","129.170.195.146","2019-08-10","jb7hfezj9naoz19","false","5880642950-exa-1613218306-mple","4491.299999994226","[17,65,85,97,100]","84","83.33333333333333","[""#6F9CA4"",""#005BA8"",""#FF4100"",""#DA7100"",""#38A600""]","[""grey"",""blue"",""red"",""orange"",""green""]","learning","[0,0.3333333333333333,0.3333333333333333,0,0.3333333333333333]"
"4687.525000015739","","","wizard-gem-trial","35","420670","0.0-35.0","wizard_gems","","","","2019-08-14T22:09:25Z","2019-08-14T22:23:39Z","853672","129.170.195.146","2019-08-10","jb7hfezj9naoz19","false","5880642950-exa-1613218306-mple","6691.825000045355","[52,77,2,39,80]","52","53","[""#6F9CA4"",""#005BA8"",""#FF4100"",""#DA7100"",""#38A600""]","[""grey"",""blue"",""red"",""orange"",""green""]","learning","[0,0.3333333333333333,0.3333333333333333,0,0.3333333333333333]"
"4628.549999964889","","","wizard-gem-trial","36","427810","0.0-36.0","wizard_gems","","","","2019-08-14T22:09:25Z","2019-08-14T22:23:39Z","853672","129.170.195.146","2019-08-10","jb7hfezj9naoz19","false","5880642950-exa-1613218306-mple","6631.805000011809","[61,87,43,92,45]","59","58.33333333333333","[""#6F9CA4"",""#005BA8"",""#FF4100"",""#DA7100"",""#38A600""]","[""grey"",""blue"",""red"",""orange"",""green""]","learning","[0,0.3333333333333333,0.3333333333333333,0,0.3333333333333333]"
"3592.2349999891594","","","wizard-gem-trial","37","433912","0.0-37.0","wizard_gems","","","","2019-08-14T22:09:25Z","2019-08-14T22:23:39Z","853672","129.170.195.146","2019-08-10","jb7hfezj9naoz19","false","5880642950-exa-1613218306-mple","5597.554999985732","[23,89,54,17,5]","47","49.33333333333333","[""#6F9CA4"",""#005BA8"",""#FF4100"",""#DA7100"",""#38A600""]","[""grey"",""blue"",""red"",""orange"",""green""]","learning","[0,0.3333333333333333,0.3333333333333333,0,0.3333333333333333]"
"2560.1599999936298","","","wizard-gem-trial","38","438978","0.0-38.0","wizard_gems","","","","2019-08-14T22:09:25Z","2019-08-14T22:23:39Z","853672","129.170.195.146","2019-08-10","jb7hfezj9naoz19","false","5880642950-exa-1613218306-mple","4561.195000016596","[86,32,85,46,24]","56","47","[""#6F9CA4"",""#005BA8"",""#FF4100"",""#DA7100"",""#38A600""]","[""grey"",""blue"",""red"",""orange"",""green""]","learning","[0,0.3333333333333333,0.3333333333333333,0,0.3333333333333333]"
"2984.8400000482798","","","wizard-gem-trial","39","444472","0.0-39.0","wizard_gems","","","","2019-08-14T22:09:25Z","2019-08-14T22:23:39Z","853672","129.170.195.146","2019-08-10","jb7hfezj9naoz19","false","5880642950-exa-1613218306-mple","4985.800000024028","[34,97,71,9,37]","61","68.33333333333333","[""#6F9CA4"",""#005BA8"",""#FF4100"",""#DA7100"",""#38A600""]","[""grey"",""blue"",""red"",""orange"",""green""]","learning","[0,0.3333333333333333,0.3333333333333333,0,0.3333333333333333]"
"2713.1650000228547","","","wizard-gem-trial","40","449693","0.0-40.0","wizard_gems","","","","2019-08-14T22:09:25Z","2019-08-14T22:23:39Z","853672","129.170.195.146","2019-08-10","jb7hfezj9naoz19","false","5880642950-exa-1613218306-mple","4713.595000037458","[56,83,54,41,50]","63","62.33333333333333","[""#6F9CA4"",""#005BA8"",""#FF4100"",""#DA7100"",""#38A600""]","[""grey"",""blue"",""red"",""orange"",""green""]","learning","[0,0.3333333333333333,0.3333333333333333,0,0.3333333333333333]"
"2744.234999991022","","","wizard-gem-trial","41","454947","0.0-41.0","wizard_gems","","","","2019-08-14T22:09:25Z","2019-08-14T22:23:39Z","853672","129.170.195.146","2019-08-10","jb7hfezj9naoz19","false","5880642950-exa-1613218306-mple","4746.704999997746","[14,28,71,29,99]","55","66","[""#6F9CA4"",""#005BA8"",""#FF4100"",""#DA7100"",""#38A600""]","[""grey"",""blue"",""red"",""orange"",""green""]","learning","[0,0.3333333333333333,0.3333333333333333,0,0.3333333333333333]"
"3561.035000020638","","","wizard-gem-trial","42","461013","0.0-42.0","wizard_gems","","","","2019-08-14T22:09:25Z","2019-08-14T22:23:39Z","853672","129.170.195.146","2019-08-10","jb7hfezj9naoz19","false","5880642950-exa-1613218306-mple","5561.435000039637","[72,81,43,49,31]","54","51.66666666666666","[""#6F9CA4"",""#005BA8"",""#FF4100"",""#DA7100"",""#38A600""]","[""grey"",""blue"",""red"",""orange"",""green""]","learning","[0,0.3333333333333333,0.3333333333333333,0,0.3333333333333333]"
"5251.545000006445","","","wizard-gem-trial","43","468773","0.0-43.0","wizard_gems","","","","2019-08-14T22:09:25Z","2019-08-14T22:23:39Z","853672","129.170.195.146","2019-08-10","jb7hfezj9naoz19","false","5880642950-exa-1613218306-mple","7251.980000000913","[27,5,10,55,79]","44","31.333333333333332","[""#6F9CA4"",""#005BA8"",""#FF4100"",""#DA7100"",""#38A600""]","[""grey"",""blue"",""red"",""orange"",""green""]","learning","[0,0.3333333333333333,0.3333333333333333,0,0.3333333333333333]"
"4300.830000021961","","","wizard-gem-trial","44","475581","0.0-44.0","wizard_gems","","","","2019-08-14T22:09:25Z","2019-08-14T22:23:39Z","853672","129.170.195.146","2019-08-10","jb7hfezj9naoz19","false","5880642950-exa-1613218306-mple","6301.150000013877","[43,61,43,31,24]","36","42.666666666666664","[""#6F9CA4"",""#005BA8"",""#FF4100"",""#DA7100"",""#38A600""]","[""grey"",""blue"",""red"",""orange"",""green""]","learning","[0,0.3333333333333333,0.3333333333333333,0,0.3333333333333333]"
"3878.649999969639","","","wizard-gem-trial","45","481969","0.0-45.0","wizard_gems","","","","2019-08-14T22:09:25Z","2019-08-14T22:23:39Z","853672","129.170.195.146","2019-08-10","jb7hfezj9naoz19","false","5880642950-exa-1613218306-mple","5882.005000021309","[80,44,95,85,49]","69","62.66666666666666","[""#6F9CA4"",""#005BA8"",""#FF4100"",""#DA7100"",""#38A600""]","[""grey"",""blue"",""red"",""orange"",""green""]","learning","[0,0.3333333333333333,0.3333333333333333,0,0.3333333333333333]"
"7505.340000032447","","","wizard-gem-trial","46","491984","0.0-46.0","wizard_gems","","","","2019-08-14T22:09:25Z","2019-08-14T22:23:39Z","853672","129.170.195.146","2019-08-10","jb7hfezj9naoz19","false","5880642950-exa-1613218306-mple","9507.270000001881","[71,80,7,11,58]","45","48.33333333333333","[""#6F9CA4"",""#005BA8"",""#FF4100"",""#DA7100"",""#38A600""]","[""grey"",""blue"",""red"",""orange"",""green""]","learning","[0,0.3333333333333333,0.3333333333333333,0,0.3333333333333333]"
"2202.545000007376","","","wizard-gem-trial","47","496691","0.0-47.0","wizard_gems","","","","2019-08-14T22:09:25Z","2019-08-14T22:23:39Z","853672","129.170.195.146","2019-08-10","jb7hfezj9naoz19","false","5880642950-exa-1613218306-mple","4202.965000004042","[12,93,86,73,29]","68","69.33333333333333","[""#6F9CA4"",""#005BA8"",""#FF4100"",""#DA7100"",""#38A600""]","[""grey"",""blue"",""red"",""orange"",""green""]","learning","[0,0.3333333333333333,0.3333333333333333,0,0.3333333333333333]"
"3657.104999991134","","","wizard-gem-trial","48","502856","0.0-48.0","wizard_gems","","","","2019-08-14T22:09:25Z","2019-08-14T22:23:39Z","853672","129.170.195.146","2019-08-10","jb7hfezj9naoz19","false","5880642950-exa-1613218306-mple","5657.579999999143","[11,2,68,15,97]","53","55.66666666666666","[""#6F9CA4"",""#005BA8"",""#FF4100"",""#DA7100"",""#38A600""]","[""grey"",""blue"",""red"",""orange"",""green""]","learning","[0,0.3333333333333333,0.3333333333333333,0,0.3333333333333333]"
"2706.1049999902025","","","wizard-gem-trial","49","508069","0.0-49.0","wizard_gems","","","","2019-08-14T22:09:25Z","2019-08-14T22:23:39Z","853672","129.170.195.146","2019-08-10","jb7hfezj9naoz19","false","5880642950-exa-1613218306-mple","4706.560000020545","[56,44,76,18,50]","55","56.666666666666664","[""#6F9CA4"",""#005BA8"",""#FF4100"",""#DA7100"",""#38A600""]","[""grey"",""blue"",""red"",""orange"",""green""]","learning","[0,0.3333333333333333,0.3333333333333333,0,0.3333333333333333]"
"3601.680000021588","","","wizard-gem-trial","50","514183","0.0-50.0","wizard_gems","","","","2019-08-14T22:09:25Z","2019-08-14T22:23:39Z","853672","129.170.195.146","2019-08-10","jb7hfezj9naoz19","false","5880642950-exa-1613218306-mple","5606.404999969527","[54,96,10,38,89]","59","65","[""#6F9CA4"",""#005BA8"",""#FF4100"",""#DA7100"",""#38A600""]","[""grey"",""blue"",""red"",""orange"",""green""]","learning","[0,0.3333333333333333,0.3333333333333333,0,0.3333333333333333]"
"2819.8149999952875","","","wizard-gem-trial","51","519511","0.0-51.0","wizard_gems","","","","2019-08-14T22:09:25Z","2019-08-14T22:23:39Z","853672","129.170.195.146","2019-08-10","jb7hfezj9naoz19","false","5880642950-exa-1613218306-mple","4821.104999980889","[90,39,48,90,25]","54","37.33333333333333","[""#6F9CA4"",""#005BA8"",""#FF4100"",""#DA7100"",""#38A600""]","[""grey"",""blue"",""red"",""orange"",""green""]","learning","[0,0.3333333333333333,0.3333333333333333,0,0.3333333333333333]"
"10264.079999993555","","","wizard-gem-trial","52","532282","0.0-52.0","wizard_gems","","","","2019-08-14T22:09:25Z","2019-08-14T22:23:39Z","853672","129.170.195.146","2019-08-10","jb7hfezj9naoz19","false","5880642950-exa-1613218306-mple","12265.209999983199","[62,43,40,92,54]","46","45.666666666666664","[""#6F9CA4"",""#005BA8"",""#FF4100"",""#DA7100"",""#38A600""]","[""grey"",""blue"",""red"",""orange"",""green""]","learning","[0,0.3333333333333333,0.3333333333333333,0,0.3333333333333333]"
"2943.0649999994785","","","wizard-gem-trial","53","537732","0.0-53.0","wizard_gems","","","","2019-08-14T22:09:25Z","2019-08-14T22:23:39Z","853672","129.170.195.146","2019-08-10","jb7hfezj9naoz19","false","5880642950-exa-1613218306-mple","4947.44499999797","[61,87,26,50,51]","51","54.666666666666664","[""#6F9CA4"",""#005BA8"",""#FF4100"",""#DA7100"",""#38A600""]","[""grey"",""blue"",""red"",""orange"",""green""]","learning","[0,0.3333333333333333,0.3333333333333333,0,0.3333333333333333]"
"7810.189999989234","","","wizard-gem-trial","54","548054","0.0-54.0","wizard_gems","","","","2019-08-14T22:09:25Z","2019-08-14T22:23:39Z","853672","129.170.195.146","2019-08-10","jb7hfezj9naoz19","false","5880642950-exa-1613218306-mple","9813.1599999615","[65,89,18,53,100]","54","69","[""#6F9CA4"",""#005BA8"",""#FF4100"",""#DA7100"",""#38A600""]","[""grey"",""blue"",""red"",""orange"",""green""]","learning","[0,0.3333333333333333,0.3333333333333333,0,0.3333333333333333]"
"3894.6449999930337","","","wizard-gem-trial","55","554457","0.0-55.0","wizard_gems","","","","2019-08-14T22:09:25Z","2019-08-14T22:23:39Z","853672","129.170.195.146","2019-08-10","jb7hfezj9naoz19","false","5880642950-exa-1613218306-mple","5896.339999977499","[75,97,24,17,80]","67","67","[""#6F9CA4"",""#005BA8"",""#FF4100"",""#DA7100"",""#38A600""]","[""grey"",""blue"",""red"",""orange"",""green""]","learning","[0,0.3333333333333333,0.3333333333333333,0,0.3333333333333333]"
"4033.0250000115484","","","wizard-gem-trial","56","561000","0.0-56.0","wizard_gems","","","","2019-08-14T22:09:25Z","2019-08-14T22:23:39Z","853672","129.170.195.146","2019-08-10","jb7hfezj9naoz19","false","5880642950-exa-1613218306-mple","6037.285000027623","[63,97,97,39,82]","89","91.99999999999999","[""#6F9CA4"",""#005BA8"",""#FF4100"",""#DA7100"",""#38A600""]","[""grey"",""blue"",""red"",""orange"",""green""]","learning","[0,0.3333333333333333,0.3333333333333333,0,0.3333333333333333]"
"6898.74500001315","","","wizard-gem-trial","57","570406","0.0-57.0","wizard_gems","","","","2019-08-14T22:09:25Z","2019-08-14T22:23:39Z","853672","129.170.195.146","2019-08-10","jb7hfezj9naoz19","false","5880642950-exa-1613218306-mple","8899.700000009034","[3,76,36,52,91]","74","67.66666666666666","[""#6F9CA4"",""#005BA8"",""#FF4100"",""#DA7100"",""#38A600""]","[""grey"",""blue"",""red"",""orange"",""green""]","learning","[0,0.3333333333333333,0.3333333333333333,0,0.3333333333333333]"
"3326.7399999895133","","","wizard-gem-trial","58","576243","0.0-58.0","wizard_gems","","","","2019-08-14T22:09:25Z","2019-08-14T22:23:39Z","853672","129.170.195.146","2019-08-10","jb7hfezj9naoz19","false","5880642950-exa-1613218306-mple","5331.784999987576","[91,80,74,24,95]","82","83","[""#6F9CA4"",""#005BA8"",""#FF4100"",""#DA7100"",""#38A600""]","[""grey"",""blue"",""red"",""orange"",""green""]","learning","[0,0.3333333333333333,0.3333333333333333,0,0.3333333333333333]"
"6201.800000038929","","","wizard-gem-trial","59","584955","0.0-59.0","wizard_gems","","","","2019-08-14T22:09:25Z","2019-08-14T22:23:39Z","853672","129.170.195.146","2019-08-10","jb7hfezj9naoz19","false","5880642950-exa-1613218306-mple","8204.76500003133","[50,61,25,73,86]","67","57.33333333333333","[""#6F9CA4"",""#005BA8"",""#FF4100"",""#DA7100"",""#38A600""]","[""grey"",""blue"",""red"",""orange"",""green""]","learning","[0,0.3333333333333333,0.3333333333333333,0,0.3333333333333333]"
"8311.805000004824","","","wizard-gem-trial","60","595773","0.0-60.0","wizard_gems","","","","2019-08-14T22:09:25Z","2019-08-14T22:23:39Z","853672","129.170.195.146","2019-08-10","jb7hfezj9naoz19","false","5880642950-exa-1613218306-mple","10312.74999998277","[19,51,4,16,8]","19","21","[""#6F9CA4"",""#005BA8"",""#FF4100"",""#DA7100"",""#38A600""]","[""grey"",""blue"",""red"",""orange"",""green""]","learning","[0,0.3333333333333333,0.3333333333333333,0,0.3333333333333333]"
"2089.4850000040606","","","wizard-gem-trial","61","600369","0.0-61.0","wizard_gems","","","","2019-08-14T22:09:25Z","2019-08-14T22:23:39Z","853672","129.170.195.146","2019-08-10","jb7hfezj9naoz19","false","5880642950-exa-1613218306-mple","4090.120000008028","[16,29,92,33,15]","34","45.33333333333333","[""#6F9CA4"",""#005BA8"",""#FF4100"",""#DA7100"",""#38A600""]","[""grey"",""blue"",""red"",""orange"",""green""]","learning","[0,0.3333333333333333,0.3333333333333333,0,0.3333333333333333]"
"2617.199999978766","","","wizard-gem-trial","62","605494","0.0-62.0","wizard_gems","","","","2019-08-14T22:09:25Z","2019-08-14T22:23:39Z","853672","129.170.195.146","2019-08-10","jb7hfezj9naoz19","false","5880642950-exa-1613218306-mple","4617.755000013858","[21,19,1,88,93]","68","37.666666666666664","[""#6F9CA4"",""#005BA8"",""#FF4100"",""#DA7100"",""#38A600""]","[""grey"",""blue"",""red"",""orange"",""green""]","learning","[0,0.3333333333333333,0.3333333333333333,0,0.3333333333333333]"
"4065.1850000140257","","","wizard-gem-trial","63","612071","0.0-63.0","wizard_gems","","","","2019-08-14T22:09:25Z","2019-08-14T22:23:39Z","853672","129.170.195.146","2019-08-10","jb7hfezj9naoz19","false","5880642950-exa-1613218306-mple","6070.524999988265","[67,12,63,100,47]","46","40.666666666666664","[""#6F9CA4"",""#005BA8"",""#FF4100"",""#DA7100"",""#38A600""]","[""grey"",""blue"",""red"",""orange"",""green""]","learning","[0,0.3333333333333333,0.3333333333333333,0,0.3333333333333333]"
"3223.0599999893457","","","wizard-gem-trial","64","617805","0.0-64.0","wizard_gems","","","","2019-08-14T22:09:25Z","2019-08-14T22:23:39Z","853672","129.170.195.146","2019-08-10","jb7hfezj9naoz19","false","5880642950-exa-1613218306-mple","5224.354999954812","[55,70,88,95,65]","60","74.33333333333333","[""#6F9CA4"",""#005BA8"",""#FF4100"",""#DA7100"",""#38A600""]","[""grey"",""blue"",""red"",""orange"",""green""]","learning","[0,0.3333333333333333,0.3333333333333333,0,0.3333333333333333]"
"4511.579999991227","","","wizard-gem-trial","65","624825","0.0-65.0","wizard_gems","","","","2019-08-14T22:09:25Z","2019-08-14T22:23:39Z","853672","129.170.195.146","2019-08-10","jb7hfezj9naoz19","false","5880642950-exa-1613218306-mple","6512.025000003632","[59,59,45,18,88]","64","64","[""#6F9CA4"",""#005BA8"",""#FF4100"",""#DA7100"",""#38A600""]","[""grey"",""blue"",""red"",""orange"",""green""]","learning","[0,0.3333333333333333,0.3333333333333333,0,0.3333333333333333]"
"2593.9150000340305","","","wizard-gem-trial","66","629924","0.0-66.0","wizard_gems","","","","2019-08-14T22:09:25Z","2019-08-14T22:23:39Z","853672","129.170.195.146","2019-08-10","jb7hfezj9naoz19","false","5880642950-exa-1613218306-mple","4595.050000003539","[24,23,15,79,3]","14","13.666666666666666","[""#6F9CA4"",""#005BA8"",""#FF4100"",""#DA7100"",""#38A600""]","[""grey"",""blue"",""red"",""orange"",""green""]","learning","[0,0.3333333333333333,0.3333333333333333,0,0.3333333333333333]"
"2820.5549999838695","","","wizard-gem-trial","67","635255","0.0-67.0","wizard_gems","","","","2019-08-14T22:09:25Z","2019-08-14T22:23:39Z","853672","129.170.195.146","2019-08-10","jb7hfezj9naoz19","false","5880642950-exa-1613218306-mple","4824.359999969602","[55,32,84,4,86]","49","67.33333333333333","[""#6F9CA4"",""#005BA8"",""#FF4100"",""#DA7100"",""#38A600""]","[""grey"",""blue"",""red"",""orange"",""green""]","learning","[0,0.3333333333333333,0.3333333333333333,0,0.3333333333333333]"
"3716.3350000046194","","","wizard-gem-trial","68","641481","0.0-68.0","wizard_gems","","","","2019-08-14T22:09:25Z","2019-08-14T22:23:39Z","853672","129.170.195.146","2019-08-10","jb7hfezj9naoz19","false","5880642950-exa-1613218306-mple","5716.725000005681","[77,14,72,80,68]","70","51.33333333333333","[""#6F9CA4"",""#005BA8"",""#FF4100"",""#DA7100"",""#38A600""]","[""grey"",""blue"",""red"",""orange"",""green""]","learning","[0,0.3333333333333333,0.3333333333333333,0,0.3333333333333333]"
"6838.51999999024","","","wizard-gem-trial","69","650831","0.0-69.0","wizard_gems","","","","2019-08-14T22:09:25Z","2019-08-14T22:23:39Z","853672","129.170.195.146","2019-08-10","jb7hfezj9naoz19","false","5880642950-exa-1613218306-mple","8843.794999993406","[14,40,45,86,67]","34","50.666666666666664","[""#6F9CA4"",""#005BA8"",""#FF4100"",""#DA7100"",""#38A600""]","[""grey"",""blue"",""red"",""orange"",""green""]","learning","[0,0.3333333333333333,0.3333333333333333,0,0.3333333333333333]"
"5261.669999978039","","","wizard-gem-trial","70","658602","0.0-70.0","wizard_gems","","","","2019-08-14T22:09:25Z","2019-08-14T22:23:39Z","853672","129.170.195.146","2019-08-10","jb7hfezj9naoz19","false","5880642950-exa-1613218306-mple","7262.950000003912","[34,78,9,42,39]","37","42","[""#6F9CA4"",""#005BA8"",""#FF4100"",""#DA7100"",""#38A600""]","[""grey"",""blue"",""red"",""orange"",""green""]","learning","[0,0.3333333333333333,0.3333333333333333,0,0.3333333333333333]"
"3107.2949999943376","","","wizard-gem-trial","71","664217","0.0-71.0","wizard_gems","","","","2019-08-14T22:09:25Z","2019-08-14T22:23:39Z","853672","129.170.195.146","2019-08-10","jb7hfezj9naoz19","false","5880642950-exa-1613218306-mple","5109.844999969937","[70,24,17,4,18]","18","19.666666666666664","[""#6F9CA4"",""#005BA8"",""#FF4100"",""#DA7100"",""#38A600""]","[""grey"",""blue"",""red"",""orange"",""green""]","learning","[0,0.3333333333333333,0.3333333333333333,0,0.3333333333333333]"
"2535.21499998169","","","wizard-gem-trial","72","669257","0.0-72.0","wizard_gems","","","","2019-08-14T22:09:25Z","2019-08-14T22:23:39Z","853672","129.170.195.146","2019-08-10","jb7hfezj9naoz19","false","5880642950-exa-1613218306-mple","4536.174999957439","[90,65,26,17,36]","37","42.33333333333333","[""#6F9CA4"",""#005BA8"",""#FF4100"",""#DA7100"",""#38A600""]","[""grey"",""blue"",""red"",""orange"",""green""]","learning","[0,0.3333333333333333,0.3333333333333333,0,0.3333333333333333]"
"2624.6150000370108","","","wizard-gem-trial","73","674392","0.0-73.0","wizard_gems","","","","2019-08-14T22:09:25Z","2019-08-14T22:23:39Z","853672","129.170.195.146","2019-08-10","jb7hfezj9naoz19","false","5880642950-exa-1613218306-mple","4628.53000004543","[52,45,96,87,6]","47","49","[""#6F9CA4"",""#005BA8"",""#FF4100"",""#DA7100"",""#38A600""]","[""grey"",""blue"",""red"",""orange"",""green""]","learning","[0,0.3333333333333333,0.3333333333333333,0,0.3333333333333333]"
"3136.5050000022165","","","wizard-gem-trial","74","680041","0.0-74.0","wizard_gems","","","","2019-08-14T22:09:25Z","2019-08-14T22:23:39Z","853672","129.170.195.146","2019-08-10","jb7hfezj9naoz19","false","5880642950-exa-1613218306-mple","5141.234999988228","[58,79,38,91,99]","70","72","[""#6F9CA4"",""#005BA8"",""#FF4100"",""#DA7100"",""#38A600""]","[""grey"",""blue"",""red"",""orange"",""green""]","learning","[0,0.3333333333333333,0.3333333333333333,0,0.3333333333333333]"
"10710.00500000082","","","wizard-gem-trial","75","693258","0.0-75.0","wizard_gems","","","","2019-08-14T22:09:25Z","2019-08-14T22:23:39Z","853672","129.170.195.146","2019-08-10","jb7hfezj9naoz19","false","5880642950-exa-1613218306-mple","12711.750000016764","[28,42,34,68,21]","26","32.33333333333333","[""#6F9CA4"",""#005BA8"",""#FF4100"",""#DA7100"",""#38A600""]","[""grey"",""blue"",""red"",""orange"",""green""]","learning","[0,0.3333333333333333,0.3333333333333333,0,0.3333333333333333]"
"6935.110000020359","","","wizard-gem-trial","76","702701","0.0-76.0","wizard_gems","","","","2019-08-14T22:09:25Z","2019-08-14T22:23:39Z","853672","129.170.195.146","2019-08-10","jb7hfezj9naoz19","false","5880642950-exa-1613218306-mple","8937.84000002779","[23,64,89,49,31]","55","61.33333333333333","[""#6F9CA4"",""#005BA8"",""#FF4100"",""#DA7100"",""#38A600""]","[""grey"",""blue"",""red"",""orange"",""green""]","learning","[0,0.3333333333333333,0.3333333333333333,0,0.3333333333333333]"
"5384.590000030585","","","wizard-gem-trial","77","710592","0.0-77.0","wizard_gems","","","","2019-08-14T22:09:25Z","2019-08-14T22:23:39Z","853672","129.170.195.146","2019-08-10","jb7hfezj9naoz19","false","5880642950-exa-1613218306-mple","7387.205000035465","[33,62,56,53,84]","81","67.33333333333333","[""#6F9CA4"",""#005BA8"",""#FF4100"",""#DA7100"",""#38A600""]","[""grey"",""blue"",""red"",""orange"",""green""]","learning","[0,0.3333333333333333,0.3333333333333333,0,0.3333333333333333]"
"3320.4900000127964","","","wizard-gem-trial","78","716419","0.0-78.0","wizard_gems","","","","2019-08-14T22:09:25Z","2019-08-14T22:23:39Z","853672","129.170.195.146","2019-08-10","jb7hfezj9naoz19","false","5880642950-exa-1613218306-mple","5320.754999993369","[73,36,13,58,83]","45","44","[""#6F9CA4"",""#005BA8"",""#FF4100"",""#DA7100"",""#38A600""]","[""grey"",""blue"",""red"",""orange"",""green""]","learning","[0,0.3333333333333333,0.3333333333333333,0,0.3333333333333333]"
"3740.4099999694154","","","wizard-gem-trial","79","722666","0.0-79.0","wizard_gems","","","","2019-08-14T22:09:25Z","2019-08-14T22:23:39Z","853672","129.170.195.146","2019-08-10","jb7hfezj9naoz19","false","5880642950-exa-1613218306-mple","5741.174999973737","[32,60,42,40,0]","34","34","[""#6F9CA4"",""#005BA8"",""#FF4100"",""#DA7100"",""#38A600""]","[""grey"",""blue"",""red"",""orange"",""green""]","learning","[0,0.3333333333333333,0.3333333333333333,0,0.3333333333333333]"
"6586.524999991525","","","wizard-gem-trial","80","731760","0.0-80.0","wizard_gems","","","","2019-08-14T22:09:25Z","2019-08-14T22:23:39Z","853672","129.170.195.146","2019-08-10","jb7hfezj9naoz19","false","5880642950-exa-1613218306-mple","8586.889999976847","[100,81,50,91,95]","76","75.33333333333333","[""#6F9CA4"",""#005BA8"",""#FF4100"",""#DA7100"",""#38A600""]","[""grey"",""blue"",""red"",""orange"",""green""]","learning","[0,0.3333333333333333,0.3333333333333333,0,0.3333333333333333]"
"4087.279999977909","","","wizard-gem-trial","81","738356","0.0-81.0","wizard_gems","","","","2019-08-14T22:09:25Z","2019-08-14T22:23:39Z","853672","129.170.195.146","2019-08-10","jb7hfezj9naoz19","false","5880642950-exa-1613218306-mple","6088.545000005979","[93,12,46,24,19]","25","25.666666666666664","[""#6F9CA4"",""#005BA8"",""#FF4100"",""#DA7100"",""#38A600""]","[""grey"",""blue"",""red"",""orange"",""green""]","learning","[0,0.3333333333333333,0.3333333333333333,0,0.3333333333333333]"
"3894.7150000021793","","","wizard-gem-trial","82","744757","0.0-82.0","wizard_gems","","","","2019-08-14T22:09:25Z","2019-08-14T22:23:39Z","853672","129.170.195.146","2019-08-10","jb7hfezj9naoz19","false","5880642950-exa-1613218306-mple","5895.080000045709","[24,67,63,76,47]","64","58.99999999999999","[""#6F9CA4"",""#005BA8"",""#FF4100"",""#DA7100"",""#38A600""]","[""grey"",""blue"",""red"",""orange"",""green""]","learning","[0,0.3333333333333333,0.3333333333333333,0,0.3333333333333333]"
"10113.884999998845","","","wizard-gem-trial","83","757377","0.0-83.0","wizard_gems","","","","2019-08-14T22:09:25Z","2019-08-14T22:23:39Z","853672","129.170.195.146","2019-08-10","jb7hfezj9naoz19","false","5880642950-exa-1613218306-mple","12114.675000018906","[52,95,9,88,53]","54","52.33333333333333","[""#6F9CA4"",""#005BA8"",""#FF4100"",""#DA7100"",""#38A600""]","[""grey"",""blue"",""red"",""orange"",""green""]","learning","[0,0.3333333333333333,0.3333333333333333,0,0.3333333333333333]"
"4709.014999971259","","","wizard-gem-trial","84","764596","0.0-84.0","wizard_gems","","","","2019-08-14T22:09:25Z","2019-08-14T22:23:39Z","853672","129.170.195.146","2019-08-10","jb7hfezj9naoz19","false","5880642950-exa-1613218306-mple","6714.259999978822","[0,60,21,54,50]","41","43.666666666666664","[""#6F9CA4"",""#005BA8"",""#FF4100"",""#DA7100"",""#38A600""]","[""grey"",""blue"",""red"",""orange"",""green""]","learning","[0,0.3333333333333333,0.3333333333333333,0,0.3333333333333333]"
"4405.529999989085","","","wizard-gem-trial","85","771506","0.0-85.0","wizard_gems","","","","2019-08-14T22:09:25Z","2019-08-14T22:23:39Z","853672","129.170.195.146","2019-08-10","jb7hfezj9naoz19","false","5880642950-exa-1613218306-mple","6406.365000002552","[31,71,40,93,42]","54","51","[""#6F9CA4"",""#005BA8"",""#FF4100"",""#DA7100"",""#38A600""]","[""grey"",""blue"",""red"",""orange"",""green""]","learning","[0,0.3333333333333333,0.3333333333333333,0,0.3333333333333333]"
"3983.2249999744818","","","wizard-gem-trial","86","777999","0.0-86.0","wizard_gems","","","","2019-08-14T22:09:25Z","2019-08-14T22:23:39Z","853672","129.170.195.146","2019-08-10","jb7hfezj9naoz19","false","5880642950-exa-1613218306-mple","5986.284999991767","[16,100,74,33,82]","82","85.33333333333333","[""#6F9CA4"",""#005BA8"",""#FF4100"",""#DA7100"",""#38A600""]","[""grey"",""blue"",""red"",""orange"",""green""]","learning","[0,0.3333333333333333,0.3333333333333333,0,0.3333333333333333]"
"3390.064999985043","","","wizard-gem-trial","87","783898","0.0-87.0","wizard_gems","","","","2019-08-14T22:09:25Z","2019-08-14T22:23:39Z","853672","129.170.195.146","2019-08-10","jb7hfezj9naoz19","false","5880642950-exa-1613218306-mple","5390.465000004042","[66,60,42,15,12]","44","38","[""#6F9CA4"",""#005BA8"",""#FF4100"",""#DA7100"",""#38A600""]","[""grey"",""blue"",""red"",""orange"",""green""]","learning","[0,0.3333333333333333,0.3333333333333333,0,0.3333333333333333]"
"3684.499999973923","","","wizard-gem-trial","88","790087","0.0-88.0","wizard_gems","","","","2019-08-14T22:09:25Z","2019-08-14T22:23:39Z","853672","129.170.195.146","2019-08-10","jb7hfezj9naoz19","false","5880642950-exa-1613218306-mple","5684.8100000061095","[32,64,84,36,91]","71","79.66666666666666","[""#6F9CA4"",""#005BA8"",""#FF4100"",""#DA7100"",""#38A600""]","[""grey"",""blue"",""red"",""orange"",""green""]","learning","[0,0.3333333333333333,0.3333333333333333,0,0.3333333333333333]"
"1935.78499997966","","","wizard-gem-trial","89","794532","0.0-89.0","wizard_gems","","","","2019-08-14T22:09:25Z","2019-08-14T22:23:39Z","853672","129.170.195.146","2019-08-10","jb7hfezj9naoz19","false","5880642950-exa-1613218306-mple","3940.275000000838","[29,94,76,45,92]","87","87.33333333333333","[""#6F9CA4"",""#005BA8"",""#FF4100"",""#DA7100"",""#38A600""]","[""grey"",""blue"",""red"",""orange"",""green""]","learning","[0,0.3333333333333333,0.3333333333333333,0,0.3333333333333333]"
"2345.629999996163","","","wizard-gem-trial","90","799382","0.0-90.0","wizard_gems","","","","2019-08-14T22:09:25Z","2019-08-14T22:23:39Z","853672","129.170.195.146","2019-08-10","jb7hfezj9naoz19","false","5880642950-exa-1613218306-mple","4346.175000013318","[29,24,89,5,87]","68","66.66666666666666","[""#6F9CA4"",""#005BA8"",""#FF4100"",""#DA7100"",""#38A600""]","[""grey"",""blue"",""red"",""orange"",""green""]","learning","[0,0.3333333333333333,0.3333333333333333,0,0.3333333333333333]"
"3978.4399999771267","","","wizard-gem-trial","91","805865","0.0-91.0","wizard_gems","","","","2019-08-14T22:09:25Z","2019-08-14T22:23:39Z","853672","129.170.195.146","2019-08-10","jb7hfezj9naoz19","false","5880642950-exa-1613218306-mple","5978.940000000875","[60,22,20,66,93]","54","45","[""#6F9CA4"",""#005BA8"",""#FF4100"",""#DA7100"",""#38A600""]","[""grey"",""blue"",""red"",""orange"",""green""]","learning","[0,0.3333333333333333,0.3333333333333333,0,0.3333333333333333]"
"4258.209999999963","","","wizard-gem-trial","92","812632","0.0-92.0","wizard_gems","","","","2019-08-14T22:09:25Z","2019-08-14T22:23:39Z","853672","129.170.195.146","2019-08-10","jb7hfezj9naoz19","false","5880642950-exa-1613218306-mple","6260.930000047665","[35,48,6,78,95]","60","49.666666666666664","[""#6F9CA4"",""#005BA8"",""#FF4100"",""#DA7100"",""#38A600""]","[""grey"",""blue"",""red"",""orange"",""green""]","learning","[0,0.3333333333333333,0.3333333333333333,0,0.3333333333333333]"
"3618.9399999566376","","","wizard-gem-trial","93","818759","0.0-93.0","wizard_gems","","","","2019-08-14T22:09:25Z","2019-08-14T22:23:39Z","853672","129.170.195.146","2019-08-10","jb7hfezj9naoz19","false","5880642950-exa-1613218306-mple","5620.460000005551","[6,39,65,82,2]","28","35.33333333333333","[""#6F9CA4"",""#005BA8"",""#FF4100"",""#DA7100"",""#38A600""]","[""grey"",""blue"",""red"",""orange"",""green""]","learning","[0,0.3333333333333333,0.3333333333333333,0,0.3333333333333333]"
"5597.565000003669","","","wizard-gem-trial","94","826866","0.0-94.0","wizard_gems","","","","2019-08-14T22:09:25Z","2019-08-14T22:23:39Z","853672","129.170.195.146","2019-08-10","jb7hfezj9naoz19","false","5880642950-exa-1613218306-mple","7597.844999982044","[21,43,23,93,3]","30","23","[""#6F9CA4"",""#005BA8"",""#FF4100"",""#DA7100"",""#38A600""]","[""grey"",""blue"",""red"",""orange"",""green""]","learning","[0,0.3333333333333333,0.3333333333333333,0,0.3333333333333333]"
"4935.740000044461","","","wizard-gem-trial","95","834308","0.0-95.0","wizard_gems","","","","2019-08-14T22:09:25Z","2019-08-14T22:23:39Z","853672","129.170.195.146","2019-08-10","jb7hfezj9naoz19","false","5880642950-exa-1613218306-mple","6936.645000008866","[74,58,0,49,56]","35","38","[""#6F9CA4"",""#005BA8"",""#FF4100"",""#DA7100"",""#38A600""]","[""grey"",""blue"",""red"",""orange"",""green""]","learning","[0,0.3333333333333333,0.3333333333333333,0,0.3333333333333333]"
"3146.154999965802","","","wizard-gem-trial","96","839962","0.0-96.0","wizard_gems","","","","2019-08-14T22:09:25Z","2019-08-14T22:23:39Z","853672","129.170.195.146","2019-08-10","jb7hfezj9naoz19","false","5880642950-exa-1613218306-mple","5146.68000000529","[24,31,2,20,13]","16","15.333333333333332","[""#6F9CA4"",""#005BA8"",""#FF4100"",""#DA7100"",""#38A600""]","[""grey"",""blue"",""red"",""orange"",""green""]","learning","[0,0.3333333333333333,0.3333333333333333,0,0.3333333333333333]"
"3800.420000043232","","","wizard-gem-trial","97","846273","0.0-97.0","wizard_gems","","","","2019-08-14T22:09:25Z","2019-08-14T22:23:39Z","853672","129.170.195.146","2019-08-10","jb7hfezj9naoz19","false","5880642950-exa-1613218306-mple","5804.015000001527","[36,80,97,50,60]","77","79","[""#6F9CA4"",""#005BA8"",""#FF4100"",""#DA7100"",""#38A600""]","[""grey"",""blue"",""red"",""orange"",""green""]","learning","[0,0.3333333333333333,0.3333333333333333,0,0.3333333333333333]"
"3225.2750000334345","","","wizard-gem-trial","98","852004","0.0-98.0","wizard_gems","","","","2019-08-14T22:09:25Z","2019-08-14T22:23:39Z","853672","129.170.195.146","2019-08-10","jb7hfezj9naoz19","false","5880642950-exa-1613218306-mple","5225.97000002861","[71,82,100,98,24]","87","68.66666666666666","[""#6F9CA4"",""#005BA8"",""#FF4100"",""#DA7100"",""#38A600""]","[""grey"",""blue"",""red"",""orange"",""green""]","learning","[0,0.3333333333333333,0.3333333333333333,0,0.3333333333333333]"
"3225.2750000334345","","","wizard-gem-trial","99","852518","0.0-99.0","wizard_gems","","","","2019-08-14T22:09:25Z","2019-08-14T22:23:39Z","853672","129.170.195.146","2019-08-10","jb7hfezj9naoz19","false","5880642950-exa-1613218306-mple","5741.665000037756","[71,82,100,98,24]","87","68.66666666666666","[""#6F9CA4"",""#005BA8"",""#FF4100"",""#DA7100"",""#38A600""]","[""grey"",""blue"",""red"",""orange"",""green""]","learning","[0,0.3333333333333333,0.3333333333333333,0,0.3333333333333333]"
"3225.2750000334345","","","wizard-gem-trial","100","853043","0.0-100.0","wizard_gems","","","","2019-08-14T22:09:25Z","2019-08-14T22:23:39Z","853672","129.170.195.146","2019-08-10","jb7hfezj9naoz19","false","5880642950-exa-1613218306-mple","6265.840000007302","[71,82,100,98,24]","87","68.66666666666666","[""#6F9CA4"",""#005BA8"",""#FF4100"",""#DA7100"",""#38A600""]","[""grey"",""blue"",""red"",""orange"",""green""]","learning","[0,0.3333333333333333,0.3333333333333333,0,0.3333333333333333]"
