"rt","url","experiment_phase","trial_type","trial_index","time_elapsed","internal_node_id","experiment_name","workerId","assignmentId","hitId","experiment_start_time","experiment_end_time","total_time","ip_address","version_date","anon_id","demo_mode","completion_code","page_rt","gem_values","response","correct_answer","gem_colors","gem_color_names","phase","gem_weights"
"33005","src/html/instructions.html","instructions","render-mustache-template","0","33166","0.0-0.0","wizard_gems","","","","2019-08-14T12:51:37Z","2019-08-14T13:01:12Z","575245","108.30.189.191","2019-08-10","1cdzsxek92mz66k","false","3249289951-exa-8591864922-mple","","","","","","","",""
"2558","","","wizard-gem-trial","1","38247","0.0-1.0","wizard_gems","","","","2019-08-14T12:51:37Z","2019-08-14T13:01:12Z","575245","108.30.189.191","2019-08-10","1cdzsxek92mz66k","false","3249289951-exa-8591864922-mple","4562","[50,52,76,75,35]","68","54.33333333333333","[""#38A600"",""#6F9CA4"",""#005BA8"",""#DA7100"",""#FF4100""]","[""green"",""grey"",""blue"",""orange"",""red""]","learning","[0,0.3333333333333333,0.3333333333333333,0,0.3333333333333333]"
"4174","","","wizard-gem-trial","2","44936","0.0-2.0","wizard_gems","","","","2019-08-14T12:51:37Z","2019-08-14T13:01:12Z","575245","108.30.189.191","2019-08-10","1cdzsxek92mz66k","false","3249289951-exa-8591864922-mple","6175","[63,47,27,91,71]","74","48.33333333333333","[""#38A600"",""#6F9CA4"",""#005BA8"",""#DA7100"",""#FF4100""]","[""green"",""grey"",""blue"",""orange"",""red""]","learning","[0,0.3333333333333333,0.3333333333333333,0,0.3333333333333333]"
"3055","","","wizard-gem-trial","3","50503","0.0-3.0","wizard_gems","","","","2019-08-14T12:51:37Z","2019-08-14T13:01:12Z","575245","108.30.189.191","2019-08-10","1cdzsxek92mz66k","false","3249289951-exa-8591864922-mple","5056","[90,44,0,38,87]","76","43.666666666666664","[""#38A600"",""#6F9CA4"",""#005BA8"",""#DA7100"",""#FF4100""]","[""green"",""grey"",""blue"",""orange"",""red""]","learning","[0,0.3333333333333333,0.3333333333333333,0,0.3333333333333333]"
"1376","","","wizard-gem-trial","4","54400","0.0-4.0","wizard_gems","","","","2019-08-14T12:51:37Z","2019-08-14T13:01:12Z","575245","108.30.189.191","2019-08-10","1cdzsxek92mz66k","false","3249289951-exa-8591864922-mple","3378","[77,59,54,87,5]","42","39.33333333333333","[""#38A600"",""#6F9CA4"",""#005BA8"",""#DA7100"",""#FF4100""]","[""green"",""grey"",""blue"",""orange"",""red""]","learning","[0,0.3333333333333333,0.3333333333333333,0,0.3333333333333333]"
"1081","","","wizard-gem-trial","5","57993","0.0-5.0","wizard_gems","","","","2019-08-14T12:51:37Z","2019-08-14T13:01:12Z","575245","108.30.189.191","2019-08-10","1cdzsxek92mz66k","false","3249289951-exa-8591864922-mple","3082","[77,9,56,93,8]","42","24.333333333333332","[""#38A600"",""#6F9CA4"",""#005BA8"",""#DA7100"",""#FF4100""]","[""green"",""grey"",""blue"",""orange"",""red""]","learning","[0,0.3333333333333333,0.3333333333333333,0,0.3333333333333333]"
"1753","","","wizard-gem-trial","6","62257","0.0-6.0","wizard_gems","","","","2019-08-14T12:51:37Z","2019-08-14T13:01:12Z","575245","108.30.189.191","2019-08-10","1cdzsxek92mz66k","false","3249289951-exa-8591864922-mple","3754","[70,73,32,73,95]","93","66.66666666666666","[""#38A600"",""#6F9CA4"",""#005BA8"",""#DA7100"",""#FF4100""]","[""green"",""grey"",""blue"",""orange"",""red""]","learning","[0,0.3333333333333333,0.3333333333333333,0,0.3333333333333333]"
"2528","","","wizard-gem-trial","7","67296","0.0-7.0","wizard_gems","","","","2019-08-14T12:51:37Z","2019-08-14T13:01:12Z","575245","108.30.189.191","2019-08-10","1cdzsxek92mz66k","false","3249289951-exa-8591864922-mple","4529","[45,81,53,8,99]","100","77.66666666666666","[""#38A600"",""#6F9CA4"",""#005BA8"",""#DA7100"",""#FF4100""]","[""green"",""grey"",""blue"",""orange"",""red""]","learning","[0,0.3333333333333333,0.3333333333333333,0,0.3333333333333333]"
"2736","","","wizard-gem-trial","8","72542","0.0-8.0","wizard_gems","","","","2019-08-14T12:51:37Z","2019-08-14T13:01:12Z","575245","108.30.189.191","2019-08-10","1cdzsxek92mz66k","false","3249289951-exa-8591864922-mple","4737","[74,87,15,96,82]","65","61.33333333333333","[""#38A600"",""#6F9CA4"",""#005BA8"",""#DA7100"",""#FF4100""]","[""green"",""grey"",""blue"",""orange"",""red""]","learning","[0,0.3333333333333333,0.3333333333333333,0,0.3333333333333333]"
"2416","","","wizard-gem-trial","9","77471","0.0-9.0","wizard_gems","","","","2019-08-14T12:51:37Z","2019-08-14T13:01:12Z","575245","108.30.189.191","2019-08-10","1cdzsxek92mz66k","false","3249289951-exa-8591864922-mple","4417","[34,89,54,30,89]","76","77.33333333333333","[""#38A600"",""#6F9CA4"",""#005BA8"",""#DA7100"",""#FF4100""]","[""green"",""grey"",""blue"",""orange"",""red""]","learning","[0,0.3333333333333333,0.3333333333333333,0,0.3333333333333333]"
"2150","","","wizard-gem-trial","10","82129","0.0-10.0","wizard_gems","","","","2019-08-14T12:51:37Z","2019-08-14T13:01:12Z","575245","108.30.189.191","2019-08-10","1cdzsxek92mz66k","false","3249289951-exa-8591864922-mple","4151","[22,74,8,28,78]","56","53.33333333333333","[""#38A600"",""#6F9CA4"",""#005BA8"",""#DA7100"",""#FF4100""]","[""green"",""grey"",""blue"",""orange"",""red""]","learning","[0,0.3333333333333333,0.3333333333333333,0,0.3333333333333333]"
"1769","","","wizard-gem-trial","11","86407","0.0-11.0","wizard_gems","","","","2019-08-14T12:51:37Z","2019-08-14T13:01:12Z","575245","108.30.189.191","2019-08-10","1cdzsxek92mz66k","false","3249289951-exa-8591864922-mple","3769","[69,95,35,32,23]","29","50.99999999999999","[""#38A600"",""#6F9CA4"",""#005BA8"",""#DA7100"",""#FF4100""]","[""green"",""grey"",""blue"",""orange"",""red""]","learning","[0,0.3333333333333333,0.3333333333333333,0,0.3333333333333333]"
"2487","","","wizard-gem-trial","12","91406","0.0-12.0","wizard_gems","","","","2019-08-14T12:51:37Z","2019-08-14T13:01:12Z","575245","108.30.189.191","2019-08-10","1cdzsxek92mz66k","false","3249289951-exa-8591864922-mple","4488","[42,86,54,44,73]","84","71","[""#38A600"",""#6F9CA4"",""#005BA8"",""#DA7100"",""#FF4100""]","[""green"",""grey"",""blue"",""orange"",""red""]","learning","[0,0.3333333333333333,0.3333333333333333,0,0.3333333333333333]"
"2063","","","wizard-gem-trial","13","95981","0.0-13.0","wizard_gems","","","","2019-08-14T12:51:37Z","2019-08-14T13:01:12Z","575245","108.30.189.191","2019-08-10","1cdzsxek92mz66k","false","3249289951-exa-8591864922-mple","4063","[84,18,84,7,69]","61","57","[""#38A600"",""#6F9CA4"",""#005BA8"",""#DA7100"",""#FF4100""]","[""green"",""grey"",""blue"",""orange"",""red""]","learning","[0,0.3333333333333333,0.3333333333333333,0,0.3333333333333333]"
"3114","","","wizard-gem-trial","14","101609","0.0-14.0","wizard_gems","","","","2019-08-14T12:51:37Z","2019-08-14T13:01:12Z","575245","108.30.189.191","2019-08-10","1cdzsxek92mz66k","false","3249289951-exa-8591864922-mple","5116","[43,34,49,54,56]","63","46.33333333333333","[""#38A600"",""#6F9CA4"",""#005BA8"",""#DA7100"",""#FF4100""]","[""green"",""grey"",""blue"",""orange"",""red""]","learning","[0,0.3333333333333333,0.3333333333333333,0,0.3333333333333333]"
"1959","","","wizard-gem-trial","15","106078","0.0-15.0","wizard_gems","","","","2019-08-14T12:51:37Z","2019-08-14T13:01:12Z","575245","108.30.189.191","2019-08-10","1cdzsxek92mz66k","false","3249289951-exa-8591864922-mple","3960","[74,8,94,58,39]","57","47","[""#38A600"",""#6F9CA4"",""#005BA8"",""#DA7100"",""#FF4100""]","[""green"",""grey"",""blue"",""orange"",""red""]","learning","[0,0.3333333333333333,0.3333333333333333,0,0.3333333333333333]"
"1927","","","wizard-gem-trial","16","110516","0.0-16.0","wizard_gems","","","","2019-08-14T12:51:37Z","2019-08-14T13:01:12Z","575245","108.30.189.191","2019-08-10","1cdzsxek92mz66k","false","3249289951-exa-8591864922-mple","3927","[71,99,35,47,61]","46","65","[""#38A600"",""#6F9CA4"",""#005BA8"",""#DA7100"",""#FF4100""]","[""green"",""grey"",""blue"",""orange"",""red""]","learning","[0,0.3333333333333333,0.3333333333333333,0,0.3333333333333333]"
"1708","","","wizard-gem-trial","17","114733","0.0-17.0","wizard_gems","","","","2019-08-14T12:51:37Z","2019-08-14T13:01:12Z","575245","108.30.189.191","2019-08-10","1cdzsxek92mz66k","false","3249289951-exa-8591864922-mple","3708","[29,5,8,75,77]","61","29.999999999999996","[""#38A600"",""#6F9CA4"",""#005BA8"",""#DA7100"",""#FF4100""]","[""green"",""grey"",""blue"",""orange"",""red""]","learning","[0,0.3333333333333333,0.3333333333333333,0,0.3333333333333333]"
"2528","","","wizard-gem-trial","18","119771","0.0-18.0","wizard_gems","","","","2019-08-14T12:51:37Z","2019-08-14T13:01:12Z","575245","108.30.189.191","2019-08-10","1cdzsxek92mz66k","false","3249289951-exa-8591864922-mple","4529","[68,46,16,62,71]","54","44.33333333333333","[""#38A600"",""#6F9CA4"",""#005BA8"",""#DA7100"",""#FF4100""]","[""green"",""grey"",""blue"",""orange"",""red""]","learning","[0,0.3333333333333333,0.3333333333333333,0,0.3333333333333333]"
"2908","","","wizard-gem-trial","19","125191","0.0-19.0","wizard_gems","","","","2019-08-14T12:51:37Z","2019-08-14T13:01:12Z","575245","108.30.189.191","2019-08-10","1cdzsxek92mz66k","false","3249289951-exa-8591864922-mple","4909","[48,66,71,55,100]","81","79","[""#38A600"",""#6F9CA4"",""#005BA8"",""#DA7100"",""#FF4100""]","[""green"",""grey"",""blue"",""orange"",""red""]","learning","[0,0.3333333333333333,0.3333333333333333,0,0.3333333333333333]"
"2528","","","wizard-gem-trial","20","130228","0.0-20.0","wizard_gems","","","","2019-08-14T12:51:37Z","2019-08-14T13:01:12Z","575245","108.30.189.191","2019-08-10","1cdzsxek92mz66k","false","3249289951-exa-8591864922-mple","4529","[11,1,25,70,33]","40","19.666666666666664","[""#38A600"",""#6F9CA4"",""#005BA8"",""#DA7100"",""#FF4100""]","[""green"",""grey"",""blue"",""orange"",""red""]","learning","[0,0.3333333333333333,0.3333333333333333,0,0.3333333333333333]"
"2871","","","wizard-gem-trial","21","135611","0.0-21.0","wizard_gems","","","","2019-08-14T12:51:37Z","2019-08-14T13:01:12Z","575245","108.30.189.191","2019-08-10","1cdzsxek92mz66k","false","3249289951-exa-8591864922-mple","4872","[85,95,88,18,14]","57","65.66666666666667","[""#38A600"",""#6F9CA4"",""#005BA8"",""#DA7100"",""#FF4100""]","[""green"",""grey"",""blue"",""orange"",""red""]","learning","[0,0.3333333333333333,0.3333333333333333,0,0.3333333333333333]"
"2258","","","wizard-gem-trial","22","140382","0.0-22.0","wizard_gems","","","","2019-08-14T12:51:37Z","2019-08-14T13:01:12Z","575245","108.30.189.191","2019-08-10","1cdzsxek92mz66k","false","3249289951-exa-8591864922-mple","4259","[42,62,44,44,5]","29","36.99999999999999","[""#38A600"",""#6F9CA4"",""#005BA8"",""#DA7100"",""#FF4100""]","[""green"",""grey"",""blue"",""orange"",""red""]","learning","[0,0.3333333333333333,0.3333333333333333,0,0.3333333333333333]"
"2686","","","wizard-gem-trial","23","145579","0.0-23.0","wizard_gems","","","","2019-08-14T12:51:37Z","2019-08-14T13:01:12Z","575245","108.30.189.191","2019-08-10","1cdzsxek92mz66k","false","3249289951-exa-8591864922-mple","4687","[55,60,62,84,38]","52","53.33333333333333","[""#38A600"",""#6F9CA4"",""#005BA8"",""#DA7100"",""#FF4100""]","[""green"",""grey"",""blue"",""orange"",""red""]","learning","[0,0.3333333333333333,0.3333333333333333,0,0.3333333333333333]"
"13144","","","wizard-gem-trial","24","161234","0.0-24.0","wizard_gems","","","","2019-08-14T12:51:37Z","2019-08-14T13:01:12Z","575245","108.30.189.191","2019-08-10","1cdzsxek92mz66k","false","3249289951-exa-8591864922-mple","15145","[30,88,1,13,14]","39","34.33333333333333","[""#38A600"",""#6F9CA4"",""#005BA8"",""#DA7100"",""#FF4100""]","[""green"",""grey"",""blue"",""orange"",""red""]","learning","[0,0.3333333333333333,0.3333333333333333,0,0.3333333333333333]"
"1694","","","wizard-gem-trial","25","165441","0.0-25.0","wizard_gems","","","","2019-08-14T12:51:37Z","2019-08-14T13:01:12Z","575245","108.30.189.191","2019-08-10","1cdzsxek92mz66k","false","3249289951-exa-8591864922-mple","3694","[22,57,90,12,25]","62","57.33333333333333","[""#38A600"",""#6F9CA4"",""#005BA8"",""#DA7100"",""#FF4100""]","[""green"",""grey"",""blue"",""orange"",""red""]","learning","[0,0.3333333333333333,0.3333333333333333,0,0.3333333333333333]"
"3384","","","wizard-gem-trial","26","171336","0.0-26.0","wizard_gems","","","","2019-08-14T12:51:37Z","2019-08-14T13:01:12Z","575245","108.30.189.191","2019-08-10","1cdzsxek92mz66k","false","3249289951-exa-8591864922-mple","5385","[79,38,16,67,77]","53","43.666666666666664","[""#38A600"",""#6F9CA4"",""#005BA8"",""#DA7100"",""#FF4100""]","[""green"",""grey"",""blue"",""orange"",""red""]","learning","[0,0.3333333333333333,0.3333333333333333,0,0.3333333333333333]"
"2835","","","wizard-gem-trial","27","176682","0.0-27.0","wizard_gems","","","","2019-08-14T12:51:37Z","2019-08-14T13:01:12Z","575245","108.30.189.191","2019-08-10","1cdzsxek92mz66k","false","3249289951-exa-8591864922-mple","4836","[65,94,82,57,10]","43","62","[""#38A600"",""#6F9CA4"",""#005BA8"",""#DA7100"",""#FF4100""]","[""green"",""grey"",""blue"",""orange"",""red""]","learning","[0,0.3333333333333333,0.3333333333333333,0,0.3333333333333333]"
"1302","","","wizard-gem-trial","28","180495","0.0-28.0","wizard_gems","","","","2019-08-14T12:51:37Z","2019-08-14T13:01:12Z","575245","108.30.189.191","2019-08-10","1cdzsxek92mz66k","false","3249289951-exa-8591864922-mple","3303","[37,91,45,42,29]","60","54.99999999999999","[""#38A600"",""#6F9CA4"",""#005BA8"",""#DA7100"",""#FF4100""]","[""green"",""grey"",""blue"",""orange"",""red""]","learning","[0,0.3333333333333333,0.3333333333333333,0,0.3333333333333333]"
"2123","","","wizard-gem-trial","29","185130","0.0-29.0","wizard_gems","","","","2019-08-14T12:51:37Z","2019-08-14T13:01:12Z","575245","108.30.189.191","2019-08-10","1cdzsxek92mz66k","false","3249289951-exa-8591864922-mple","4123","[85,9,95,22,18]","40","40.666666666666664","[""#38A600"",""#6F9CA4"",""#005BA8"",""#DA7100"",""#FF4100""]","[""green"",""grey"",""blue"",""orange"",""red""]","learning","[0,0.3333333333333333,0.3333333333333333,0,0.3333333333333333]"
"1718","","","wizard-gem-trial","30","189361","0.0-30.0","wizard_gems","","","","2019-08-14T12:51:37Z","2019-08-14T13:01:12Z","575245","108.30.189.191","2019-08-10","1cdzsxek92mz66k","false","3249289951-exa-8591864922-mple","3719","[85,79,82,34,99]","87","86.66666666666666","[""#38A600"",""#6F9CA4"",""#005BA8"",""#DA7100"",""#FF4100""]","[""green"",""grey"",""blue"",""orange"",""red""]","learning","[0,0.3333333333333333,0.3333333333333333,0,0.3333333333333333]"
"4365","","","wizard-gem-trial","31","196238","0.0-31.0","wizard_gems","","","","2019-08-14T12:51:37Z","2019-08-14T13:01:12Z","575245","108.30.189.191","2019-08-10","1cdzsxek92mz66k","false","3249289951-exa-8591864922-mple","6365","[7,31,56,50,65]","54","50.66666666666666","[""#38A600"",""#6F9CA4"",""#005BA8"",""#DA7100"",""#FF4100""]","[""green"",""grey"",""blue"",""orange"",""red""]","learning","[0,0.3333333333333333,0.3333333333333333,0,0.3333333333333333]"
"1596","","","wizard-gem-trial","32","200345","0.0-32.0","wizard_gems","","","","2019-08-14T12:51:37Z","2019-08-14T13:01:12Z","575245","108.30.189.191","2019-08-10","1cdzsxek92mz66k","false","3249289951-exa-8591864922-mple","3596","[45,21,19,31,22]","40","20.666666666666664","[""#38A600"",""#6F9CA4"",""#005BA8"",""#DA7100"",""#FF4100""]","[""green"",""grey"",""blue"",""orange"",""red""]","learning","[0,0.3333333333333333,0.3333333333333333,0,0.3333333333333333]"
"2919","","","wizard-gem-trial","33","205777","0.0-33.0","wizard_gems","","","","2019-08-14T12:51:37Z","2019-08-14T13:01:12Z","575245","108.30.189.191","2019-08-10","1cdzsxek92mz66k","false","3249289951-exa-8591864922-mple","4920","[79,99,47,21,37]","57","61","[""#38A600"",""#6F9CA4"",""#005BA8"",""#DA7100"",""#FF4100""]","[""green"",""grey"",""blue"",""orange"",""red""]","learning","[0,0.3333333333333333,0.3333333333333333,0,0.3333333333333333]"
"1449","","","wizard-gem-trial","34","209737","0.0-34.0","wizard_gems","","","","2019-08-14T12:51:37Z","2019-08-14T13:01:12Z","575245","108.30.189.191","2019-08-10","1cdzsxek92mz66k","false","3249289951-exa-8591864922-mple","3450","[23,79,85,35,87]","88","83.66666666666666","[""#38A600"",""#6F9CA4"",""#005BA8"",""#DA7100"",""#FF4100""]","[""green"",""grey"",""blue"",""orange"",""red""]","learning","[0,0.3333333333333333,0.3333333333333333,0,0.3333333333333333]"
"1717","","","wizard-gem-trial","35","213967","0.0-35.0","wizard_gems","","","","2019-08-14T12:51:37Z","2019-08-14T13:01:12Z","575245","108.30.189.191","2019-08-10","1cdzsxek92mz66k","false","3249289951-exa-8591864922-mple","3717","[63,33,84,4,87]","72","68","[""#38A600"",""#6F9CA4"",""#005BA8"",""#DA7100"",""#FF4100""]","[""green"",""grey"",""blue"",""orange"",""red""]","learning","[0,0.3333333333333333,0.3333333333333333,0,0.3333333333333333]"
"2185","","","wizard-gem-trial","36","218663","0.0-36.0","wizard_gems","","","","2019-08-14T12:51:37Z","2019-08-14T13:01:12Z","575245","108.30.189.191","2019-08-10","1cdzsxek92mz66k","false","3249289951-exa-8591864922-mple","4185","[9,27,22,4,92]","51","47","[""#38A600"",""#6F9CA4"",""#005BA8"",""#DA7100"",""#FF4100""]","[""green"",""grey"",""blue"",""orange"",""red""]","learning","[0,0.3333333333333333,0.3333333333333333,0,0.3333333333333333]"
"1405","","","wizard-gem-trial","37","222579","0.0-37.0","wizard_gems","","","","2019-08-14T12:51:37Z","2019-08-14T13:01:12Z","575245","108.30.189.191","2019-08-10","1cdzsxek92mz66k","false","3249289951-exa-8591864922-mple","3405","[87,63,64,15,36]","27","54.33333333333333","[""#38A600"",""#6F9CA4"",""#005BA8"",""#DA7100"",""#FF4100""]","[""green"",""grey"",""blue"",""orange"",""red""]","learning","[0,0.3333333333333333,0.3333333333333333,0,0.3333333333333333]"
"2569","","","wizard-gem-trial","38","227662","0.0-38.0","wizard_gems","","","","2019-08-14T12:51:37Z","2019-08-14T13:01:12Z","575245","108.30.189.191","2019-08-10","1cdzsxek92mz66k","false","3249289951-exa-8591864922-mple","4569","[14,4,10,21,97]","65","36.99999999999999","[""#38A600"",""#6F9CA4"",""#005BA8"",""#DA7100"",""#FF4100""]","[""green"",""grey"",""blue"",""orange"",""red""]","learning","[0,0.3333333333333333,0.3333333333333333,0,0.3333333333333333]"
"2284","","","wizard-gem-trial","39","232458","0.0-39.0","wizard_gems","","","","2019-08-14T12:51:37Z","2019-08-14T13:01:12Z","575245","108.30.189.191","2019-08-10","1cdzsxek92mz66k","false","3249289951-exa-8591864922-mple","4284","[73,16,100,70,62]","59","59.33333333333333","[""#38A600"",""#6F9CA4"",""#005BA8"",""#DA7100"",""#FF4100""]","[""green"",""grey"",""blue"",""orange"",""red""]","learning","[0,0.3333333333333333,0.3333333333333333,0,0.3333333333333333]"
"1348","","","wizard-gem-trial","40","236320","0.0-40.0","wizard_gems","","","","2019-08-14T12:51:37Z","2019-08-14T13:01:12Z","575245","108.30.189.191","2019-08-10","1cdzsxek92mz66k","false","3249289951-exa-8591864922-mple","3350","[13,77,79,23,54]","71","70","[""#38A600"",""#6F9CA4"",""#005BA8"",""#DA7100"",""#FF4100""]","[""green"",""grey"",""blue"",""orange"",""red""]","learning","[0,0.3333333333333333,0.3333333333333333,0,0.3333333333333333]"
"2075","","","wizard-gem-trial","41","240907","0.0-41.0","wizard_gems","","","","2019-08-14T12:51:37Z","2019-08-14T13:01:12Z","575245","108.30.189.191","2019-08-10","1cdzsxek92mz66k","false","3249289951-exa-8591864922-mple","4074","[25,31,43,17,43]","47","39","[""#38A600"",""#6F9CA4"",""#005BA8"",""#DA7100"",""#FF4100""]","[""green"",""grey"",""blue"",""orange"",""red""]","learning","[0,0.3333333333333333,0.3333333333333333,0,0.3333333333333333]"
"2883","","","wizard-gem-trial","42","246302","0.0-42.0","wizard_gems","","","","2019-08-14T12:51:37Z","2019-08-14T13:01:12Z","575245","108.30.189.191","2019-08-10","1cdzsxek92mz66k","false","3249289951-exa-8591864922-mple","4883","[33,92,33,23,2]","44","42.33333333333333","[""#38A600"",""#6F9CA4"",""#005BA8"",""#DA7100"",""#FF4100""]","[""green"",""grey"",""blue"",""orange"",""red""]","learning","[0,0.3333333333333333,0.3333333333333333,0,0.3333333333333333]"
"4881","","","wizard-gem-trial","43","253696","0.0-43.0","wizard_gems","","","","2019-08-14T12:51:37Z","2019-08-14T13:01:12Z","575245","108.30.189.191","2019-08-10","1cdzsxek92mz66k","false","3249289951-exa-8591864922-mple","6881","[89,36,37,10,56]","57","43","[""#38A600"",""#6F9CA4"",""#005BA8"",""#DA7100"",""#FF4100""]","[""green"",""grey"",""blue"",""orange"",""red""]","learning","[0,0.3333333333333333,0.3333333333333333,0,0.3333333333333333]"
"2037","","","wizard-gem-trial","44","258245","0.0-44.0","wizard_gems","","","","2019-08-14T12:51:37Z","2019-08-14T13:01:12Z","575245","108.30.189.191","2019-08-10","1cdzsxek92mz66k","false","3249289951-exa-8591864922-mple","4037","[37,6,38,67,60]","45","34.666666666666664","[""#38A600"",""#6F9CA4"",""#005BA8"",""#DA7100"",""#FF4100""]","[""green"",""grey"",""blue"",""orange"",""red""]","learning","[0,0.3333333333333333,0.3333333333333333,0,0.3333333333333333]"
"7580","","","wizard-gem-trial","45","268339","0.0-45.0","wizard_gems","","","","2019-08-14T12:51:37Z","2019-08-14T13:01:12Z","575245","108.30.189.191","2019-08-10","1cdzsxek92mz66k","false","3249289951-exa-8591864922-mple","9580","[64,52,12,57,87]","46","50.33333333333333","[""#38A600"",""#6F9CA4"",""#005BA8"",""#DA7100"",""#FF4100""]","[""green"",""grey"",""blue"",""orange"",""red""]","learning","[0,0.3333333333333333,0.3333333333333333,0,0.3333333333333333]"
"2468","","","wizard-gem-trial","46","273319","0.0-46.0","wizard_gems","","","","2019-08-14T12:51:37Z","2019-08-14T13:01:12Z","575245","108.30.189.191","2019-08-10","1cdzsxek92mz66k","false","3249289951-exa-8591864922-mple","4469","[87,52,60,73,84]","66","65.33333333333333","[""#38A600"",""#6F9CA4"",""#005BA8"",""#DA7100"",""#FF4100""]","[""green"",""grey"",""blue"",""orange"",""red""]","learning","[0,0.3333333333333333,0.3333333333333333,0,0.3333333333333333]"
"2334","","","wizard-gem-trial","47","278168","0.0-47.0","wizard_gems","","","","2019-08-14T12:51:37Z","2019-08-14T13:01:12Z","575245","108.30.189.191","2019-08-10","1cdzsxek92mz66k","false","3249289951-exa-8591864922-mple","4335","[28,95,65,3,15]","65","58.33333333333333","[""#38A600"",""#6F9CA4"",""#005BA8"",""#DA7100"",""#FF4100""]","[""green"",""grey"",""blue"",""orange"",""red""]","learning","[0,0.3333333333333333,0.3333333333333333,0,0.3333333333333333]"
"3468","","","wizard-gem-trial","48","284149","0.0-48.0","wizard_gems","","","","2019-08-14T12:51:37Z","2019-08-14T13:01:12Z","575245","108.30.189.191","2019-08-10","1cdzsxek92mz66k","false","3249289951-exa-8591864922-mple","5469","[55,19,23,81,81]","60","41","[""#38A600"",""#6F9CA4"",""#005BA8"",""#DA7100"",""#FF4100""]","[""green"",""grey"",""blue"",""orange"",""red""]","learning","[0,0.3333333333333333,0.3333333333333333,0,0.3333333333333333]"
"3879","","","wizard-gem-trial","49","290542","0.0-49.0","wizard_gems","","","","2019-08-14T12:51:37Z","2019-08-14T13:01:12Z","575245","108.30.189.191","2019-08-10","1cdzsxek92mz66k","false","3249289951-exa-8591864922-mple","5880","[72,58,0,79,68]","48","42","[""#38A600"",""#6F9CA4"",""#005BA8"",""#DA7100"",""#FF4100""]","[""green"",""grey"",""blue"",""orange"",""red""]","learning","[0,0.3333333333333333,0.3333333333333333,0,0.3333333333333333]"
"3169","","","wizard-gem-trial","50","296228","0.0-50.0","wizard_gems","","","","2019-08-14T12:51:37Z","2019-08-14T13:01:12Z","575245","108.30.189.191","2019-08-10","1cdzsxek92mz66k","false","3249289951-exa-8591864922-mple","5170","[94,91,81,43,83]","75","85","[""#38A600"",""#6F9CA4"",""#005BA8"",""#DA7100"",""#FF4100""]","[""green"",""grey"",""blue"",""orange"",""red""]","learning","[0,0.3333333333333333,0.3333333333333333,0,0.3333333333333333]"
"3470","","","wizard-gem-trial","51","302213","0.0-51.0","wizard_gems","","","","2019-08-14T12:51:37Z","2019-08-14T13:01:12Z","575245","108.30.189.191","2019-08-10","1cdzsxek92mz66k","false","3249289951-exa-8591864922-mple","5469","[82,54,96,10,0]","49","50","[""#38A600"",""#6F9CA4"",""#005BA8"",""#DA7100"",""#FF4100""]","[""green"",""grey"",""blue"",""orange"",""red""]","learning","[0,0.3333333333333333,0.3333333333333333,0,0.3333333333333333]"
"2660","","","wizard-gem-trial","52","307388","0.0-52.0","wizard_gems","","","","2019-08-14T12:51:37Z","2019-08-14T13:01:12Z","575245","108.30.189.191","2019-08-10","1cdzsxek92mz66k","false","3249289951-exa-8591864922-mple","4661","[86,71,96,93,10]","59","59","[""#38A600"",""#6F9CA4"",""#005BA8"",""#DA7100"",""#FF4100""]","[""green"",""grey"",""blue"",""orange"",""red""]","learning","[0,0.3333333333333333,0.3333333333333333,0,0.3333333333333333]"
"2358","","","wizard-gem-trial","53","312259","0.0-53.0","wizard_gems","","","","2019-08-14T12:51:37Z","2019-08-14T13:01:12Z","575245","108.30.189.191","2019-08-10","1cdzsxek92mz66k","false","3249289951-exa-8591864922-mple","4360","[6,42,56,39,84]","60","60.666666666666664","[""#38A600"",""#6F9CA4"",""#005BA8"",""#DA7100"",""#FF4100""]","[""green"",""grey"",""blue"",""orange"",""red""]","learning","[0,0.3333333333333333,0.3333333333333333,0,0.3333333333333333]"
"1787","","","wizard-gem-trial","54","316562","0.0-54.0","wizard_gems","","","","2019-08-14T12:51:37Z","2019-08-14T13:01:12Z","575245","108.30.189.191","2019-08-10","1cdzsxek92mz66k","false","3249289951-exa-8591864922-mple","3788","[3,44,93,69,28]","55","55","[""#38A600"",""#6F9CA4"",""#005BA8"",""#DA7100"",""#FF4100""]","[""green"",""grey"",""blue"",""orange"",""red""]","learning","[0,0.3333333333333333,0.3333333333333333,0,0.3333333333333333]"
"4220","","","wizard-gem-trial","55","323295","0.0-55.0","wizard_gems","","","","2019-08-14T12:51:37Z","2019-08-14T13:01:12Z","575245","108.30.189.191","2019-08-10","1cdzsxek92mz66k","false","3249289951-exa-8591864922-mple","6221","[39,88,14,62,81]","63","61","[""#38A600"",""#6F9CA4"",""#005BA8"",""#DA7100"",""#FF4100""]","[""green"",""grey"",""blue"",""orange"",""red""]","learning","[0,0.3333333333333333,0.3333333333333333,0,0.3333333333333333]"
"3067","","","wizard-gem-trial","56","328876","0.0-56.0","wizard_gems","","","","2019-08-14T12:51:37Z","2019-08-14T13:01:12Z","575245","108.30.189.191","2019-08-10","1cdzsxek92mz66k","false","3249289951-exa-8591864922-mple","5067","[36,34,45,2,37]","45","38.666666666666664","[""#38A600"",""#6F9CA4"",""#005BA8"",""#DA7100"",""#FF4100""]","[""green"",""grey"",""blue"",""orange"",""red""]","learning","[0,0.3333333333333333,0.3333333333333333,0,0.3333333333333333]"
"2489","","","wizard-gem-trial","57","333882","0.0-57.0","wizard_gems","","","","2019-08-14T12:51:37Z","2019-08-14T13:01:12Z","575245","108.30.189.191","2019-08-10","1cdzsxek92mz66k","false","3249289951-exa-8591864922-mple","4490","[41,31,29,81,84]","46","48","[""#38A600"",""#6F9CA4"",""#005BA8"",""#DA7100"",""#FF4100""]","[""green"",""grey"",""blue"",""orange"",""red""]","learning","[0,0.3333333333333333,0.3333333333333333,0,0.3333333333333333]"
"2832","","","wizard-gem-trial","58","339229","0.0-58.0","wizard_gems","","","","2019-08-14T12:51:37Z","2019-08-14T13:01:12Z","575245","108.30.189.191","2019-08-10","1cdzsxek92mz66k","false","3249289951-exa-8591864922-mple","4832","[29,49,57,4,94]","58","66.66666666666666","[""#38A600"",""#6F9CA4"",""#005BA8"",""#DA7100"",""#FF4100""]","[""green"",""grey"",""blue"",""orange"",""red""]","learning","[0,0.3333333333333333,0.3333333333333333,0,0.3333333333333333]"
"4331","","","wizard-gem-trial","59","346076","0.0-59.0","wizard_gems","","","","2019-08-14T12:51:37Z","2019-08-14T13:01:12Z","575245","108.30.189.191","2019-08-10","1cdzsxek92mz66k","false","3249289951-exa-8591864922-mple","6331","[13,66,89,43,29]","48","61.33333333333333","[""#38A600"",""#6F9CA4"",""#005BA8"",""#DA7100"",""#FF4100""]","[""green"",""grey"",""blue"",""orange"",""red""]","learning","[0,0.3333333333333333,0.3333333333333333,0,0.3333333333333333]"
"8866","","","wizard-gem-trial","60","357459","0.0-60.0","wizard_gems","","","","2019-08-14T12:51:37Z","2019-08-14T13:01:12Z","575245","108.30.189.191","2019-08-10","1cdzsxek92mz66k","false","3249289951-exa-8591864922-mple","10867","[41,69,39,27,76]","48","61.33333333333333","[""#38A600"",""#6F9CA4"",""#005BA8"",""#DA7100"",""#FF4100""]","[""green"",""grey"",""blue"",""orange"",""red""]","learning","[0,0.3333333333333333,0.3333333333333333,0,0.3333333333333333]"
"3456","","","wizard-gem-trial","61","363431","0.0-61.0","wizard_gems","","","","2019-08-14T12:51:37Z","2019-08-14T13:01:12Z","575245","108.30.189.191","2019-08-10","1cdzsxek92mz66k","false","3249289951-exa-8591864922-mple","5456","[52,64,75,95,48]","69","62.33333333333333","[""#38A600"",""#6F9CA4"",""#005BA8"",""#DA7100"",""#FF4100""]","[""green"",""grey"",""blue"",""orange"",""red""]","learning","[0,0.3333333333333333,0.3333333333333333,0,0.3333333333333333]"
"5089","","","wizard-gem-trial","62","371036","0.0-62.0","wizard_gems","","","","2019-08-14T12:51:37Z","2019-08-14T13:01:12Z","575245","108.30.189.191","2019-08-10","1cdzsxek92mz66k","false","3249289951-exa-8591864922-mple","7090","[23,96,24,32,62]","61","60.666666666666664","[""#38A600"",""#6F9CA4"",""#005BA8"",""#DA7100"",""#FF4100""]","[""green"",""grey"",""blue"",""orange"",""red""]","learning","[0,0.3333333333333333,0.3333333333333333,0,0.3333333333333333]"
"6174","","","wizard-gem-trial","63","379726","0.0-63.0","wizard_gems","","","","2019-08-14T12:51:37Z","2019-08-14T13:01:12Z","575245","108.30.189.191","2019-08-10","1cdzsxek92mz66k","false","3249289951-exa-8591864922-mple","8174","[60,38,50,52,72]","56","53.33333333333333","[""#38A600"",""#6F9CA4"",""#005BA8"",""#DA7100"",""#FF4100""]","[""green"",""grey"",""blue"",""orange"",""red""]","learning","[0,0.3333333333333333,0.3333333333333333,0,0.3333333333333333]"
"3084","","","wizard-gem-trial","64","385326","0.0-64.0","wizard_gems","","","","2019-08-14T12:51:37Z","2019-08-14T13:01:12Z","575245","108.30.189.191","2019-08-10","1cdzsxek92mz66k","false","3249289951-exa-8591864922-mple","5085","[45,45,0,6,40]","41","28.333333333333332","[""#38A600"",""#6F9CA4"",""#005BA8"",""#DA7100"",""#FF4100""]","[""green"",""grey"",""blue"",""orange"",""red""]","learning","[0,0.3333333333333333,0.3333333333333333,0,0.3333333333333333]"
"2857","","","wizard-gem-trial","65","390700","0.0-65.0","wizard_gems","","","","2019-08-14T12:51:37Z","2019-08-14T13:01:12Z","575245","108.30.189.191","2019-08-10","1cdzsxek92mz66k","false","3249289951-exa-8591864922-mple","4857","[67,85,56,27,64]","55","68.33333333333333","[""#38A600"",""#6F9CA4"",""#005BA8"",""#DA7100"",""#FF4100""]","[""green"",""grey"",""blue"",""orange"",""red""]","learning","[0,0.3333333333333333,0.3333333333333333,0,0.3333333333333333]"
"6180","","","wizard-gem-trial","66","399396","0.0-66.0","wizard_gems","","","","2019-08-14T12:51:37Z","2019-08-14T13:01:12Z","575245","108.30.189.191","2019-08-10","1cdzsxek92mz66k","false","3249289951-exa-8591864922-mple","8181","[68,66,36,37,11]","48","37.666666666666664","[""#38A600"",""#6F9CA4"",""#005BA8"",""#DA7100"",""#FF4100""]","[""green"",""grey"",""blue"",""orange"",""red""]","learning","[0,0.3333333333333333,0.3333333333333333,0,0.3333333333333333]"
"2207","","","wizard-gem-trial","67","404120","0.0-67.0","wizard_gems","","","","2019-08-14T12:51:37Z","2019-08-14T13:01:12Z","575245","108.30.189.191","2019-08-10","1cdzsxek92mz66k","false","3249289951-exa-8591864922-mple","4208","[12,99,98,64,53]","57","83.33333333333331","[""#38A600"",""#6F9CA4"",""#005BA8"",""#DA7100"",""#FF4100""]","[""green"",""grey"",""blue"",""orange"",""red""]","learning","[0,0.3333333333333333,0.3333333333333333,0,0.3333333333333333]"
"6451","","","wizard-gem-trial","68","413088","0.0-68.0","wizard_gems","","","","2019-08-14T12:51:37Z","2019-08-14T13:01:12Z","575245","108.30.189.191","2019-08-10","1cdzsxek92mz66k","false","3249289951-exa-8591864922-mple","8452","[59,62,30,28,13]","31","35","[""#38A600"",""#6F9CA4"",""#005BA8"",""#DA7100"",""#FF4100""]","[""green"",""grey"",""blue"",""orange"",""red""]","learning","[0,0.3333333333333333,0.3333333333333333,0,0.3333333333333333]"
"3800","","","wizard-gem-trial","69","419405","0.0-69.0","wizard_gems","","","","2019-08-14T12:51:37Z","2019-08-14T13:01:12Z","575245","108.30.189.191","2019-08-10","1cdzsxek92mz66k","false","3249289951-exa-8591864922-mple","5800","[57,73,1,60,27]","59","33.666666666666664","[""#38A600"",""#6F9CA4"",""#005BA8"",""#DA7100"",""#FF4100""]","[""green"",""grey"",""blue"",""orange"",""red""]","learning","[0,0.3333333333333333,0.3333333333333333,0,0.3333333333333333]"
"3152","","","wizard-gem-trial","70","425075","0.0-70.0","wizard_gems","","","","2019-08-14T12:51:37Z","2019-08-14T13:01:12Z","575245","108.30.189.191","2019-08-10","1cdzsxek92mz66k","false","3249289951-exa-8591864922-mple","5152","[47,85,72,61,36]","61","64.33333333333333","[""#38A600"",""#6F9CA4"",""#005BA8"",""#DA7100"",""#FF4100""]","[""green"",""grey"",""blue"",""orange"",""red""]","learning","[0,0.3333333333333333,0.3333333333333333,0,0.3333333333333333]"
"4128","","","wizard-gem-trial","71","431724","0.0-71.0","wizard_gems","","","","2019-08-14T12:51:37Z","2019-08-14T13:01:12Z","575245","108.30.189.191","2019-08-10","1cdzsxek92mz66k","false","3249289951-exa-8591864922-mple","6129","[98,50,24,22,74]","53","49.33333333333333","[""#38A600"",""#6F9CA4"",""#005BA8"",""#DA7100"",""#FF4100""]","[""green"",""grey"",""blue"",""orange"",""red""]","learning","[0,0.3333333333333333,0.3333333333333333,0,0.3333333333333333]"
"3197","","","wizard-gem-trial","72","437441","0.0-72.0","wizard_gems","","","","2019-08-14T12:51:37Z","2019-08-14T13:01:12Z","575245","108.30.189.191","2019-08-10","1cdzsxek92mz66k","false","3249289951-exa-8591864922-mple","5198","[40,2,61,78,50]","47","37.666666666666664","[""#38A600"",""#6F9CA4"",""#005BA8"",""#DA7100"",""#FF4100""]","[""green"",""grey"",""blue"",""orange"",""red""]","learning","[0,0.3333333333333333,0.3333333333333333,0,0.3333333333333333]"
"9064","","","wizard-gem-trial","73","449022","0.0-73.0","wizard_gems","","","","2019-08-14T12:51:37Z","2019-08-14T13:01:12Z","575245","108.30.189.191","2019-08-10","1cdzsxek92mz66k","false","3249289951-exa-8591864922-mple","11065","[25,19,56,11,42]","35","39","[""#38A600"",""#6F9CA4"",""#005BA8"",""#DA7100"",""#FF4100""]","[""green"",""grey"",""blue"",""orange"",""red""]","learning","[0,0.3333333333333333,0.3333333333333333,0,0.3333333333333333]"
"4120","","","wizard-gem-trial","74","455662","0.0-74.0","wizard_gems","","","","2019-08-14T12:51:37Z","2019-08-14T13:01:12Z","575245","108.30.189.191","2019-08-10","1cdzsxek92mz66k","false","3249289951-exa-8591864922-mple","6121","[38,35,33,37,67]","41","45","[""#38A600"",""#6F9CA4"",""#005BA8"",""#DA7100"",""#FF4100""]","[""green"",""grey"",""blue"",""orange"",""red""]","learning","[0,0.3333333333333333,0.3333333333333333,0,0.3333333333333333]"
"3295","","","wizard-gem-trial","75","461476","0.0-75.0","wizard_gems","","","","2019-08-14T12:51:37Z","2019-08-14T13:01:12Z","575245","108.30.189.191","2019-08-10","1cdzsxek92mz66k","false","3249289951-exa-8591864922-mple","5295","[70,40,28,89,6]","40","24.666666666666664","[""#38A600"",""#6F9CA4"",""#005BA8"",""#DA7100"",""#FF4100""]","[""green"",""grey"",""blue"",""orange"",""red""]","learning","[0,0.3333333333333333,0.3333333333333333,0,0.3333333333333333]"
"2462","","","wizard-gem-trial","76","466458","0.0-76.0","wizard_gems","","","","2019-08-14T12:51:37Z","2019-08-14T13:01:12Z","575245","108.30.189.191","2019-08-10","1cdzsxek92mz66k","false","3249289951-exa-8591864922-mple","4464","[23,85,62,11,34]","30","60.33333333333333","[""#38A600"",""#6F9CA4"",""#005BA8"",""#DA7100"",""#FF4100""]","[""green"",""grey"",""blue"",""orange"",""red""]","learning","[0,0.3333333333333333,0.3333333333333333,0,0.3333333333333333]"
"3714","","","wizard-gem-trial","77","472690","0.0-77.0","wizard_gems","","","","2019-08-14T12:51:37Z","2019-08-14T13:01:12Z","575245","108.30.189.191","2019-08-10","1cdzsxek92mz66k","false","3249289951-exa-8591864922-mple","5715","[0,30,96,70,1]","34","42.333333333333336","[""#38A600"",""#6F9CA4"",""#005BA8"",""#DA7100"",""#FF4100""]","[""green"",""grey"",""blue"",""orange"",""red""]","learning","[0,0.3333333333333333,0.3333333333333333,0,0.3333333333333333]"
"1822","","","wizard-gem-trial","78","477032","0.0-78.0","wizard_gems","","","","2019-08-14T12:51:37Z","2019-08-14T13:01:12Z","575245","108.30.189.191","2019-08-10","1cdzsxek92mz66k","false","3249289951-exa-8591864922-mple","3823","[78,0,44,34,69]","34","37.666666666666664","[""#38A600"",""#6F9CA4"",""#005BA8"",""#DA7100"",""#FF4100""]","[""green"",""grey"",""blue"",""orange"",""red""]","learning","[0,0.3333333333333333,0.3333333333333333,0,0.3333333333333333]"
"2669","","","wizard-gem-trial","79","482222","0.0-79.0","wizard_gems","","","","2019-08-14T12:51:37Z","2019-08-14T13:01:12Z","575245","108.30.189.191","2019-08-10","1cdzsxek92mz66k","false","3249289951-exa-8591864922-mple","4670","[97,15,53,81,70]","59","46","[""#38A600"",""#6F9CA4"",""#005BA8"",""#DA7100"",""#FF4100""]","[""green"",""grey"",""blue"",""orange"",""red""]","learning","[0,0.3333333333333333,0.3333333333333333,0,0.3333333333333333]"
"1836","","","wizard-gem-trial","80","486579","0.0-80.0","wizard_gems","","","","2019-08-14T12:51:37Z","2019-08-14T13:01:12Z","575245","108.30.189.191","2019-08-10","1cdzsxek92mz66k","false","3249289951-exa-8591864922-mple","3837","[87,7,27,79,23]","31","19","[""#38A600"",""#6F9CA4"",""#005BA8"",""#DA7100"",""#FF4100""]","[""green"",""grey"",""blue"",""orange"",""red""]","learning","[0,0.3333333333333333,0.3333333333333333,0,0.3333333333333333]"
"1700","","","wizard-gem-trial","81","490799","0.0-81.0","wizard_gems","","","","2019-08-14T12:51:37Z","2019-08-14T13:01:12Z","575245","108.30.189.191","2019-08-10","1cdzsxek92mz66k","false","3249289951-exa-8591864922-mple","3701","[82,64,71,94,80]","71","71.66666666666666","[""#38A600"",""#6F9CA4"",""#005BA8"",""#DA7100"",""#FF4100""]","[""green"",""grey"",""blue"",""orange"",""red""]","learning","[0,0.3333333333333333,0.3333333333333333,0,0.3333333333333333]"
"2473","","","wizard-gem-trial","82","495793","0.0-82.0","wizard_gems","","","","2019-08-14T12:51:37Z","2019-08-14T13:01:12Z","575245","108.30.189.191","2019-08-10","1cdzsxek92mz66k","false","3249289951-exa-8591864922-mple","4474","[32,15,8,86,54]","42","25.666666666666664","[""#38A600"",""#6F9CA4"",""#005BA8"",""#DA7100"",""#FF4100""]","[""green"",""grey"",""blue"",""orange"",""red""]","learning","[0,0.3333333333333333,0.3333333333333333,0,0.3333333333333333]"
"3222","","","wizard-gem-trial","83","501535","0.0-83.0","wizard_gems","","","","2019-08-14T12:51:37Z","2019-08-14T13:01:12Z","575245","108.30.189.191","2019-08-10","1cdzsxek92mz66k","false","3249289951-exa-8591864922-mple","5223","[74,19,53,7,48]","36","40","[""#38A600"",""#6F9CA4"",""#005BA8"",""#DA7100"",""#FF4100""]","[""green"",""grey"",""blue"",""orange"",""red""]","learning","[0,0.3333333333333333,0.3333333333333333,0,0.3333333333333333]"
"1655","","","wizard-gem-trial","84","505710","0.0-84.0","wizard_gems","","","","2019-08-14T12:51:37Z","2019-08-14T13:01:12Z","575245","108.30.189.191","2019-08-10","1cdzsxek92mz66k","false","3249289951-exa-8591864922-mple","3656","[45,30,24,85,86]","39","46.666666666666664","[""#38A600"",""#6F9CA4"",""#005BA8"",""#DA7100"",""#FF4100""]","[""green"",""grey"",""blue"",""orange"",""red""]","learning","[0,0.3333333333333333,0.3333333333333333,0,0.3333333333333333]"
"3106","","","wizard-gem-trial","85","511336","0.0-85.0","wizard_gems","","","","2019-08-14T12:51:37Z","2019-08-14T13:01:12Z","575245","108.30.189.191","2019-08-10","1cdzsxek92mz66k","false","3249289951-exa-8591864922-mple","5107","[83,91,13,33,29]","46","44.33333333333333","[""#38A600"",""#6F9CA4"",""#005BA8"",""#DA7100"",""#FF4100""]","[""green"",""grey"",""blue"",""orange"",""red""]","learning","[0,0.3333333333333333,0.3333333333333333,0,0.3333333333333333]"
"1900","","","wizard-gem-trial","86","515757","0.0-86.0","wizard_gems","","","","2019-08-14T12:51:37Z","2019-08-14T13:01:12Z","575245","108.30.189.191","2019-08-10","1cdzsxek92mz66k","false","3249289951-exa-8591864922-mple","3900","[23,13,5,20,6]","19","8","[""#38A600"",""#6F9CA4"",""#005BA8"",""#DA7100"",""#FF4100""]","[""green"",""grey"",""blue"",""orange"",""red""]","learning","[0,0.3333333333333333,0.3333333333333333,0,0.3333333333333333]"
"1959","","","wizard-gem-trial","87","520237","0.0-87.0","wizard_gems","","","","2019-08-14T12:51:37Z","2019-08-14T13:01:12Z","575245","108.30.189.191","2019-08-10","1cdzsxek92mz66k","false","3249289951-exa-8591864922-mple","3960","[51,0,56,36,36]","37","30.666666666666664","[""#38A600"",""#6F9CA4"",""#005BA8"",""#DA7100"",""#FF4100""]","[""green"",""grey"",""blue"",""orange"",""red""]","learning","[0,0.3333333333333333,0.3333333333333333,0,0.3333333333333333]"
"1221","","","wizard-gem-trial","88","523980","0.0-88.0","wizard_gems","","","","2019-08-14T12:51:37Z","2019-08-14T13:01:12Z","575245","108.30.189.191","2019-08-10","1cdzsxek92mz66k","false","3249289951-exa-8591864922-mple","3222","[96,43,30,9,16]","21","29.666666666666664","[""#38A600"",""#6F9CA4"",""#005BA8"",""#DA7100"",""#FF4100""]","[""green"",""grey"",""blue"",""orange"",""red""]","learning","[0,0.3333333333333333,0.3333333333333333,0,0.3333333333333333]"
"962","","","wizard-gem-trial","89","527464","0.0-89.0","wizard_gems","","","","2019-08-14T12:51:37Z","2019-08-14T13:01:12Z","575245","108.30.189.191","2019-08-10","1cdzsxek92mz66k","false","3249289951-exa-8591864922-mple","2963","[60,36,92,46,74]","46","67.33333333333333","[""#38A600"",""#6F9CA4"",""#005BA8"",""#DA7100"",""#FF4100""]","[""green"",""grey"",""blue"",""orange"",""red""]","learning","[0,0.3333333333333333,0.3333333333333333,0,0.3333333333333333]"
"1774","","","wizard-gem-trial","90","531759","0.0-90.0","wizard_gems","","","","2019-08-14T12:51:37Z","2019-08-14T13:01:12Z","575245","108.30.189.191","2019-08-10","1cdzsxek92mz66k","false","3249289951-exa-8591864922-mple","3774","[19,97,91,13,25]","36","70.99999999999999","[""#38A600"",""#6F9CA4"",""#005BA8"",""#DA7100"",""#FF4100""]","[""green"",""grey"",""blue"",""orange"",""red""]","learning","[0,0.3333333333333333,0.3333333333333333,0,0.3333333333333333]"
"1563","","","wizard-gem-trial","91","535846","0.0-91.0","wizard_gems","","","","2019-08-14T12:51:37Z","2019-08-14T13:01:12Z","575245","108.30.189.191","2019-08-10","1cdzsxek92mz66k","false","3249289951-exa-8591864922-mple","3564","[90,60,76,31,76]","39","70.66666666666666","[""#38A600"",""#6F9CA4"",""#005BA8"",""#DA7100"",""#FF4100""]","[""green"",""grey"",""blue"",""orange"",""red""]","learning","[0,0.3333333333333333,0.3333333333333333,0,0.3333333333333333]"
"1161","","","wizard-gem-trial","92","539530","0.0-92.0","wizard_gems","","","","2019-08-14T12:51:37Z","2019-08-14T13:01:12Z","575245","108.30.189.191","2019-08-10","1cdzsxek92mz66k","false","3249289951-exa-8591864922-mple","3162","[53,39,21,27,30]","35","30","[""#38A600"",""#6F9CA4"",""#005BA8"",""#DA7100"",""#FF4100""]","[""green"",""grey"",""blue"",""orange"",""red""]","learning","[0,0.3333333333333333,0.3333333333333333,0,0.3333333333333333]"
"2213","","","wizard-gem-trial","93","544264","0.0-93.0","wizard_gems","","","","2019-08-14T12:51:37Z","2019-08-14T13:01:12Z","575245","108.30.189.191","2019-08-10","1cdzsxek92mz66k","false","3249289951-exa-8591864922-mple","4213","[61,66,28,83,98]","70","64","[""#38A600"",""#6F9CA4"",""#005BA8"",""#DA7100"",""#FF4100""]","[""green"",""grey"",""blue"",""orange"",""red""]","learning","[0,0.3333333333333333,0.3333333333333333,0,0.3333333333333333]"
"1539","","","wizard-gem-trial","94","548326","0.0-94.0","wizard_gems","","","","2019-08-14T12:51:37Z","2019-08-14T13:01:12Z","575245","108.30.189.191","2019-08-10","1cdzsxek92mz66k","false","3249289951-exa-8591864922-mple","3540","[52,9,64,86,68]","52","47","[""#38A600"",""#6F9CA4"",""#005BA8"",""#DA7100"",""#FF4100""]","[""green"",""grey"",""blue"",""orange"",""red""]","learning","[0,0.3333333333333333,0.3333333333333333,0,0.3333333333333333]"
"1540","","","wizard-gem-trial","95","552388","0.0-95.0","wizard_gems","","","","2019-08-14T12:51:37Z","2019-08-14T13:01:12Z","575245","108.30.189.191","2019-08-10","1cdzsxek92mz66k","false","3249289951-exa-8591864922-mple","3540","[62,90,46,21,75]","67","70.33333333333333","[""#38A600"",""#6F9CA4"",""#005BA8"",""#DA7100"",""#FF4100""]","[""green"",""grey"",""blue"",""orange"",""red""]","learning","[0,0.3333333333333333,0.3333333333333333,0,0.3333333333333333]"
"1402","","","wizard-gem-trial","96","556313","0.0-96.0","wizard_gems","","","","2019-08-14T12:51:37Z","2019-08-14T13:01:12Z","575245","108.30.189.191","2019-08-10","1cdzsxek92mz66k","false","3249289951-exa-8591864922-mple","3402","[37,71,14,29,8]","27","30.999999999999996","[""#38A600"",""#6F9CA4"",""#005BA8"",""#DA7100"",""#FF4100""]","[""green"",""grey"",""blue"",""orange"",""red""]","learning","[0,0.3333333333333333,0.3333333333333333,0,0.3333333333333333]"
"1476","","","wizard-gem-trial","97","560314","0.0-97.0","wizard_gems","","","","2019-08-14T12:51:37Z","2019-08-14T13:01:12Z","575245","108.30.189.191","2019-08-10","1cdzsxek92mz66k","false","3249289951-exa-8591864922-mple","3476","[10,65,48,47,4]","31","39","[""#38A600"",""#6F9CA4"",""#005BA8"",""#DA7100"",""#FF4100""]","[""green"",""grey"",""blue"",""orange"",""red""]","learning","[0,0.3333333333333333,0.3333333333333333,0,0.3333333333333333]"
"1539","","","wizard-gem-trial","98","564379","0.0-98.0","wizard_gems","","","","2019-08-14T12:51:37Z","2019-08-14T13:01:12Z","575245","108.30.189.191","2019-08-10","1cdzsxek92mz66k","false","3249289951-exa-8591864922-mple","3539","[72,62,99,94,7]","45","56","[""#38A600"",""#6F9CA4"",""#005BA8"",""#DA7100"",""#FF4100""]","[""green"",""grey"",""blue"",""orange"",""red""]","learning","[0,0.3333333333333333,0.3333333333333333,0,0.3333333333333333]"
"3966","","","wizard-gem-trial","99","570868","0.0-99.0","wizard_gems","","","","2019-08-14T12:51:37Z","2019-08-14T13:01:12Z","575245","108.30.189.191","2019-08-10","1cdzsxek92mz66k","false","3249289951-exa-8591864922-mple","5966","[80,77,82,98,72]","76","77","[""#38A600"",""#6F9CA4"",""#005BA8"",""#DA7100"",""#FF4100""]","[""green"",""grey"",""blue"",""orange"",""red""]","learning","[0,0.3333333333333333,0.3333333333333333,0,0.3333333333333333]"
"1206","","","wizard-gem-trial","100","574614","0.0-100.0","wizard_gems","","","","2019-08-14T12:51:37Z","2019-08-14T13:01:12Z","575245","108.30.189.191","2019-08-10","1cdzsxek92mz66k","false","3249289951-exa-8591864922-mple","3222","[29,83,81,34,86]","60","83.33333333333333","[""#38A600"",""#6F9CA4"",""#005BA8"",""#DA7100"",""#FF4100""]","[""green"",""grey"",""blue"",""orange"",""red""]","learning","[0,0.3333333333333333,0.3333333333333333,0,0.3333333333333333]"
