"rt","url","experiment_phase","trial_type","trial_index","time_elapsed","internal_node_id","experiment_name","workerId","assignmentId","hitId","experiment_start_time","experiment_end_time","total_time","ip_address","version_date","anon_id","demo_mode","completion_code","page_rt","gem_values","response","correct_answer","gem_colors","gem_color_names","phase","gem_weights"
"5992","src/html/instructions.html","instructions","render-mustache-template","0","6093","0.0-0.0","wizard_gems","","","","2019-08-14T20:56:17Z","2019-08-14T21:05:41Z","563641","37.171.205.9","2019-08-10","w866ebf1p9o6598","false","2928854768-exa-8303994053-mple","","","","","","","",""
"6343.9999999827705","","","wizard-gem-trial","1","14984","0.0-1.0","wizard_gems","","","","2019-08-14T20:56:17Z","2019-08-14T21:05:41Z","563641","37.171.205.9","2019-08-10","w866ebf1p9o6598","false","2928854768-exa-8303994053-mple","8348.100000002887","[25,56,15,21,58]","51","20.333333333333332","[""#005BA8"",""#38A600"",""#FF4100"",""#6F9CA4"",""#DA7100""]","[""blue"",""green"",""red"",""grey"",""orange""]","learning","[0.3333333333333333,0,0.3333333333333333,0.3333333333333333,0]"
"1944.1000000224449","","","wizard-gem-trial","2","19460","0.0-2.0","wizard_gems","","","","2019-08-14T20:56:17Z","2019-08-14T21:05:41Z","563641","37.171.205.9","2019-08-10","w866ebf1p9o6598","false","2928854768-exa-8303994053-mple","3945.6000000354834","[52,85,57,81,68]","70","63.33333333333333","[""#005BA8"",""#38A600"",""#FF4100"",""#6F9CA4"",""#DA7100""]","[""blue"",""green"",""red"",""grey"",""orange""]","learning","[0.3333333333333333,0,0.3333333333333333,0.3333333333333333,0]"
"2222.200000018347","","","wizard-gem-trial","3","24214","0.0-3.0","wizard_gems","","","","2019-08-14T20:56:17Z","2019-08-14T21:05:41Z","563641","37.171.205.9","2019-08-10","w866ebf1p9o6598","false","2928854768-exa-8303994053-mple","4224.600000015926","[89,54,48,31,91]","77","56","[""#005BA8"",""#38A600"",""#FF4100"",""#6F9CA4"",""#DA7100""]","[""blue"",""green"",""red"",""grey"",""orange""]","learning","[0.3333333333333333,0,0.3333333333333333,0.3333333333333333,0]"
"2670.799999963492","","","wizard-gem-trial","4","29407","0.0-4.0","wizard_gems","","","","2019-08-14T20:56:17Z","2019-08-14T21:05:41Z","563641","37.171.205.9","2019-08-10","w866ebf1p9o6598","false","2928854768-exa-8303994053-mple","4671.999999962281","[56,61,45,9,74]","41","36.666666666666664","[""#005BA8"",""#38A600"",""#FF4100"",""#6F9CA4"",""#DA7100""]","[""blue"",""green"",""red"",""grey"",""orange""]","learning","[0.3333333333333333,0,0.3333333333333333,0.3333333333333333,0]"
"2745.8999999798834","","","wizard-gem-trial","5","34682","0.0-5.0","wizard_gems","","","","2019-08-14T20:56:17Z","2019-08-14T21:05:41Z","563641","37.171.205.9","2019-08-10","w866ebf1p9o6598","false","2928854768-exa-8303994053-mple","4746.999999973923","[39,77,94,47,46]","66","59.99999999999999","[""#005BA8"",""#38A600"",""#FF4100"",""#6F9CA4"",""#DA7100""]","[""blue"",""green"",""red"",""grey"",""orange""]","learning","[0.3333333333333333,0,0.3333333333333333,0.3333333333333333,0]"
"3147.5000000209548","","","wizard-gem-trial","6","40348","0.0-6.0","wizard_gems","","","","2019-08-14T20:56:17Z","2019-08-14T21:05:41Z","563641","37.171.205.9","2019-08-10","w866ebf1p9o6598","false","2928854768-exa-8303994053-mple","5149.399999994785","[30,36,40,81,76]","39","50.33333333333333","[""#005BA8"",""#38A600"",""#FF4100"",""#6F9CA4"",""#DA7100""]","[""blue"",""green"",""red"",""grey"",""orange""]","learning","[0.3333333333333333,0,0.3333333333333333,0.3333333333333333,0]"
"1978.2000000122935","","","wizard-gem-trial","7","44859","0.0-7.0","wizard_gems","","","","2019-08-14T20:56:17Z","2019-08-14T21:05:41Z","563641","37.171.205.9","2019-08-10","w866ebf1p9o6598","false","2928854768-exa-8303994053-mple","3979.6000000205822","[82,70,40,45,42]","42","55.666666666666664","[""#005BA8"",""#38A600"",""#FF4100"",""#6F9CA4"",""#DA7100""]","[""blue"",""green"",""red"",""grey"",""orange""]","learning","[0.3333333333333333,0,0.3333333333333333,0.3333333333333333,0]"
"2669.2000000039116","","","wizard-gem-trial","8","50061","0.0-8.0","wizard_gems","","","","2019-08-14T20:56:17Z","2019-08-14T21:05:41Z","563641","37.171.205.9","2019-08-10","w866ebf1p9o6598","false","2928854768-exa-8303994053-mple","4670.799999963492","[36,87,92,94,89]","77","74","[""#005BA8"",""#38A600"",""#FF4100"",""#6F9CA4"",""#DA7100""]","[""blue"",""green"",""red"",""grey"",""orange""]","learning","[0.3333333333333333,0,0.3333333333333333,0.3333333333333333,0]"
"3404.6000000089407","","","wizard-gem-trial","9","55997","0.0-9.0","wizard_gems","","","","2019-08-14T20:56:17Z","2019-08-14T21:05:41Z","563641","37.171.205.9","2019-08-10","w866ebf1p9o6598","false","2928854768-exa-8303994053-mple","5406.200000026729","[8,44,92,85,93]","73","61.66666666666666","[""#005BA8"",""#38A600"",""#FF4100"",""#6F9CA4"",""#DA7100""]","[""blue"",""green"",""red"",""grey"",""orange""]","learning","[0.3333333333333333,0,0.3333333333333333,0.3333333333333333,0]"
"2492.2999999835156","","","wizard-gem-trial","10","61022","0.0-10.0","wizard_gems","","","","2019-08-14T20:56:17Z","2019-08-14T21:05:41Z","563641","37.171.205.9","2019-08-10","w866ebf1p9o6598","false","2928854768-exa-8303994053-mple","4494.699999981094","[58,48,80,78,69]","60","72","[""#005BA8"",""#38A600"",""#FF4100"",""#6F9CA4"",""#DA7100""]","[""blue"",""green"",""red"",""grey"",""orange""]","learning","[0.3333333333333333,0,0.3333333333333333,0.3333333333333333,0]"
"2558.599999989383","","","wizard-gem-trial","11","66112","0.0-11.0","wizard_gems","","","","2019-08-14T20:56:17Z","2019-08-14T21:05:41Z","563641","37.171.205.9","2019-08-10","w866ebf1p9o6598","false","2928854768-exa-8303994053-mple","4559.799999988172","[18,51,29,4,49]","41","17","[""#005BA8"",""#38A600"",""#FF4100"",""#6F9CA4"",""#DA7100""]","[""blue"",""green"",""red"",""grey"",""orange""]","learning","[0.3333333333333333,0,0.3333333333333333,0.3333333333333333,0]"
"2458.4000000031665","","","wizard-gem-trial","12","71099","0.0-12.0","wizard_gems","","","","2019-08-14T20:56:17Z","2019-08-14T21:05:41Z","563641","37.171.205.9","2019-08-10","w866ebf1p9o6598","false","2928854768-exa-8303994053-mple","4460.499999986496","[24,29,71,16,15]","18","37","[""#005BA8"",""#38A600"",""#FF4100"",""#6F9CA4"",""#DA7100""]","[""blue"",""green"",""red"",""grey"",""orange""]","learning","[0.3333333333333333,0,0.3333333333333333,0.3333333333333333,0]"
"4289.8999999742955","","","wizard-gem-trial","13","77909","0.0-13.0","wizard_gems","","","","2019-08-14T20:56:17Z","2019-08-14T21:05:41Z","563641","37.171.205.9","2019-08-10","w866ebf1p9o6598","false","2928854768-exa-8303994053-mple","6291.1999999778345","[29,74,59,59,18]","34","48.99999999999999","[""#005BA8"",""#38A600"",""#FF4100"",""#6F9CA4"",""#DA7100""]","[""blue"",""green"",""red"",""grey"",""orange""]","learning","[0.3333333333333333,0,0.3333333333333333,0.3333333333333333,0]"
"1673.9999999990687","","","wizard-gem-trial","14","82111","0.0-14.0","wizard_gems","","","","2019-08-14T20:56:17Z","2019-08-14T21:05:41Z","563641","37.171.205.9","2019-08-10","w866ebf1p9o6598","false","2928854768-exa-8303994053-mple","3675.4000000073574","[32,90,23,82,22]","40","45.666666666666664","[""#005BA8"",""#38A600"",""#FF4100"",""#6F9CA4"",""#DA7100""]","[""blue"",""green"",""red"",""grey"",""orange""]","learning","[0.3333333333333333,0,0.3333333333333333,0.3333333333333333,0]"
"2079.200000036508","","","wizard-gem-trial","15","86720","0.0-15.0","wizard_gems","","","","2019-08-14T20:56:17Z","2019-08-14T21:05:41Z","563641","37.171.205.9","2019-08-10","w866ebf1p9o6598","false","2928854768-exa-8303994053-mple","4080.2000000257976","[6,47,26,67,67]","39","33","[""#005BA8"",""#38A600"",""#FF4100"",""#6F9CA4"",""#DA7100""]","[""blue"",""green"",""red"",""grey"",""orange""]","learning","[0.3333333333333333,0,0.3333333333333333,0.3333333333333333,0]"
"2240.4000000096858","","","wizard-gem-trial","16","91492","0.0-16.0","wizard_gems","","","","2019-08-14T20:56:17Z","2019-08-14T21:05:41Z","563641","37.171.205.9","2019-08-10","w866ebf1p9o6598","false","2928854768-exa-8303994053-mple","4241.600000008475","[99,19,39,9,76]","35","49","[""#005BA8"",""#38A600"",""#FF4100"",""#6F9CA4"",""#DA7100""]","[""blue"",""green"",""red"",""grey"",""orange""]","learning","[0.3333333333333333,0,0.3333333333333333,0.3333333333333333,0]"
"3314.39999997383","","","wizard-gem-trial","17","97337","0.0-17.0","wizard_gems","","","","2019-08-14T20:56:17Z","2019-08-14T21:05:41Z","563641","37.171.205.9","2019-08-10","w866ebf1p9o6598","false","2928854768-exa-8303994053-mple","5315.599999972619","[35,65,5,2,70]","18","13.999999999999998","[""#005BA8"",""#38A600"",""#FF4100"",""#6F9CA4"",""#DA7100""]","[""blue"",""green"",""red"",""grey"",""orange""]","learning","[0.3333333333333333,0,0.3333333333333333,0.3333333333333333,0]"
"2672.2000000299886","","","wizard-gem-trial","18","102540","0.0-18.0","wizard_gems","","","","2019-08-14T20:56:17Z","2019-08-14T21:05:41Z","563641","37.171.205.9","2019-08-10","w866ebf1p9o6598","false","2928854768-exa-8303994053-mple","4673.600000038277","[57,4,92,2,3]","43","50.33333333333333","[""#005BA8"",""#38A600"",""#FF4100"",""#6F9CA4"",""#DA7100""]","[""blue"",""green"",""red"",""grey"",""orange""]","learning","[0.3333333333333333,0,0.3333333333333333,0.3333333333333333,0]"
"2760.7999999891035","","","wizard-gem-trial","19","107831","0.0-19.0","wizard_gems","","","","2019-08-14T20:56:17Z","2019-08-14T21:05:41Z","563641","37.171.205.9","2019-08-10","w866ebf1p9o6598","false","2928854768-exa-8303994053-mple","4764.599999994971","[7,51,96,77,25]","74","60","[""#005BA8"",""#38A600"",""#FF4100"",""#6F9CA4"",""#DA7100""]","[""blue"",""green"",""red"",""grey"",""orange""]","learning","[0.3333333333333333,0,0.3333333333333333,0.3333333333333333,0]"
"2183.000000019092","","","wizard-gem-trial","20","112540","0.0-20.0","wizard_gems","","","","2019-08-14T20:56:17Z","2019-08-14T21:05:41Z","563641","37.171.205.9","2019-08-10","w866ebf1p9o6598","false","2928854768-exa-8303994053-mple","4184.899999992922","[93,7,62,45,1]","49","66.66666666666666","[""#005BA8"",""#38A600"",""#FF4100"",""#6F9CA4"",""#DA7100""]","[""blue"",""green"",""red"",""grey"",""orange""]","learning","[0.3333333333333333,0,0.3333333333333333,0.3333333333333333,0]"
"3556.9000000250526","","","wizard-gem-trial","21","118627","0.0-21.0","wizard_gems","","","","2019-08-14T20:56:17Z","2019-08-14T21:05:41Z","563641","37.171.205.9","2019-08-10","w866ebf1p9o6598","false","2928854768-exa-8303994053-mple","5558.300000033341","[60,52,67,55,88]","58","60.66666666666666","[""#005BA8"",""#38A600"",""#FF4100"",""#6F9CA4"",""#DA7100""]","[""blue"",""green"",""red"",""grey"",""orange""]","learning","[0.3333333333333333,0,0.3333333333333333,0.3333333333333333,0]"
"2915.099999983795","","","wizard-gem-trial","22","124072","0.0-22.0","wizard_gems","","","","2019-08-14T20:56:17Z","2019-08-14T21:05:41Z","563641","37.171.205.9","2019-08-10","w866ebf1p9o6598","false","2928854768-exa-8303994053-mple","4916.700000001583","[35,70,76,81,30]","64","64","[""#005BA8"",""#38A600"",""#FF4100"",""#6F9CA4"",""#DA7100""]","[""blue"",""green"",""red"",""grey"",""orange""]","learning","[0.3333333333333333,0,0.3333333333333333,0.3333333333333333,0]"
"3008.1999999820255","","","wizard-gem-trial","23","129611","0.0-23.0","wizard_gems","","","","2019-08-14T20:56:17Z","2019-08-14T21:05:41Z","563641","37.171.205.9","2019-08-10","w866ebf1p9o6598","false","2928854768-exa-8303994053-mple","5009.399999980815","[97,1,85,48,94]","74","76.66666666666666","[""#005BA8"",""#38A600"",""#FF4100"",""#6F9CA4"",""#DA7100""]","[""blue"",""green"",""red"",""grey"",""orange""]","learning","[0.3333333333333333,0,0.3333333333333333,0.3333333333333333,0]"
"3505.799999984447","","","wizard-gem-trial","24","135647","0.0-24.0","wizard_gems","","","","2019-08-14T20:56:17Z","2019-08-14T21:05:41Z","563641","37.171.205.9","2019-08-10","w866ebf1p9o6598","false","2928854768-exa-8303994053-mple","5506.899999978486","[10,52,82,19,63]","43","37","[""#005BA8"",""#38A600"",""#FF4100"",""#6F9CA4"",""#DA7100""]","[""blue"",""green"",""red"",""grey"",""orange""]","learning","[0.3333333333333333,0,0.3333333333333333,0.3333333333333333,0]"
"5696.1000000010245","","","wizard-gem-trial","25","143886","0.0-25.0","wizard_gems","","","","2019-08-14T20:56:17Z","2019-08-14T21:05:41Z","563641","37.171.205.9","2019-08-10","w866ebf1p9o6598","false","2928854768-exa-8303994053-mple","7704.700000002049","[30,84,5,16,6]","41","17","[""#005BA8"",""#38A600"",""#FF4100"",""#6F9CA4"",""#DA7100""]","[""blue"",""green"",""red"",""grey"",""orange""]","learning","[0.3333333333333333,0,0.3333333333333333,0.3333333333333333,0]"
"2379.799999995157","","","wizard-gem-trial","26","148856","0.0-26.0","wizard_gems","","","","2019-08-14T20:56:17Z","2019-08-14T21:05:41Z","563641","37.171.205.9","2019-08-10","w866ebf1p9o6598","false","2928854768-exa-8303994053-mple","4380.799999984447","[29,37,43,67,75]","63","46.33333333333333","[""#005BA8"",""#38A600"",""#FF4100"",""#6F9CA4"",""#DA7100""]","[""blue"",""green"",""red"",""grey"",""orange""]","learning","[0.3333333333333333,0,0.3333333333333333,0.3333333333333333,0]"
"3157.3999999673106","","","wizard-gem-trial","27","154545","0.0-27.0","wizard_gems","","","","2019-08-14T20:56:17Z","2019-08-14T21:05:41Z","563641","37.171.205.9","2019-08-10","w866ebf1p9o6598","false","2928854768-exa-8303994053-mple","5158.999999985099","[8,58,25,71,28]","41","34.666666666666664","[""#005BA8"",""#38A600"",""#FF4100"",""#6F9CA4"",""#DA7100""]","[""blue"",""green"",""red"",""grey"",""orange""]","learning","[0.3333333333333333,0,0.3333333333333333,0.3333333333333333,0]"
"1751.9000000320375","","","wizard-gem-trial","28","158828","0.0-28.0","wizard_gems","","","","2019-08-14T20:56:17Z","2019-08-14T21:05:41Z","563641","37.171.205.9","2019-08-10","w866ebf1p9o6598","false","2928854768-exa-8303994053-mple","3753.000000026077","[97,47,69,83,91]","81","83","[""#005BA8"",""#38A600"",""#FF4100"",""#6F9CA4"",""#DA7100""]","[""blue"",""green"",""red"",""grey"",""orange""]","learning","[0.3333333333333333,0,0.3333333333333333,0.3333333333333333,0]"
"2059.6000000368804","","","wizard-gem-trial","29","163404","0.0-29.0","wizard_gems","","","","2019-08-14T20:56:17Z","2019-08-14T21:05:41Z","563641","37.171.205.9","2019-08-10","w866ebf1p9o6598","false","2928854768-exa-8303994053-mple","4060.8000000356697","[87,88,6,98,94]","95","63.666666666666664","[""#005BA8"",""#38A600"",""#FF4100"",""#6F9CA4"",""#DA7100""]","[""blue"",""green"",""red"",""grey"",""orange""]","learning","[0.3333333333333333,0,0.3333333333333333,0.3333333333333333,0]"
"3236.299999989569","","","wizard-gem-trial","30","169171","0.0-30.0","wizard_gems","","","","2019-08-14T20:56:17Z","2019-08-14T21:05:41Z","563641","37.171.205.9","2019-08-10","w866ebf1p9o6598","false","2928854768-exa-8303994053-mple","5237.4999999883585","[50,14,9,96,52]","56","51.666666666666664","[""#005BA8"",""#38A600"",""#FF4100"",""#6F9CA4"",""#DA7100""]","[""blue"",""green"",""red"",""grey"",""orange""]","learning","[0.3333333333333333,0,0.3333333333333333,0.3333333333333333,0]"
"2155.7000000029802","","","wizard-gem-trial","31","173858","0.0-31.0","wizard_gems","","","","2019-08-14T20:56:17Z","2019-08-14T21:05:41Z","563641","37.171.205.9","2019-08-10","w866ebf1p9o6598","false","2928854768-exa-8303994053-mple","4157.400000025518","[15,53,68,82,95]","71","55","[""#005BA8"",""#38A600"",""#FF4100"",""#6F9CA4"",""#DA7100""]","[""blue"",""green"",""red"",""grey"",""orange""]","learning","[0.3333333333333333,0,0.3333333333333333,0.3333333333333333,0]"
"2139.400000043679","","","wizard-gem-trial","32","178529","0.0-32.0","wizard_gems","","","","2019-08-14T20:56:17Z","2019-08-14T21:05:41Z","563641","37.171.205.9","2019-08-10","w866ebf1p9o6598","false","2928854768-exa-8303994053-mple","4141.200000012759","[42,62,8,97,84]","64","49","[""#005BA8"",""#38A600"",""#FF4100"",""#6F9CA4"",""#DA7100""]","[""blue"",""green"",""red"",""grey"",""orange""]","learning","[0.3333333333333333,0,0.3333333333333333,0.3333333333333333,0]"
"3661.199999973178","","","wizard-gem-trial","33","184723","0.0-33.0","wizard_gems","","","","2019-08-14T20:56:17Z","2019-08-14T21:05:41Z","563641","37.171.205.9","2019-08-10","w866ebf1p9o6598","false","2928854768-exa-8303994053-mple","5662.499999976717","[15,38,11,28,39]","26","18","[""#005BA8"",""#38A600"",""#FF4100"",""#6F9CA4"",""#DA7100""]","[""blue"",""green"",""red"",""grey"",""orange""]","learning","[0.3333333333333333,0,0.3333333333333333,0.3333333333333333,0]"
"2901.099999959115","","","wizard-gem-trial","34","190157","0.0-34.0","wizard_gems","","","","2019-08-14T20:56:17Z","2019-08-14T21:05:41Z","563641","37.171.205.9","2019-08-10","w866ebf1p9o6598","false","2928854768-exa-8303994053-mple","4902.899999986403","[69,14,53,5,6]","39","42.33333333333333","[""#005BA8"",""#38A600"",""#FF4100"",""#6F9CA4"",""#DA7100""]","[""blue"",""green"",""red"",""grey"",""orange""]","learning","[0.3333333333333333,0,0.3333333333333333,0.3333333333333333,0]"
"3038.0000000004657","","","wizard-gem-trial","35","195726","0.0-35.0","wizard_gems","","","","2019-08-14T20:56:17Z","2019-08-14T21:05:41Z","563641","37.171.205.9","2019-08-10","w866ebf1p9o6598","false","2928854768-exa-8303994053-mple","5039.700000023004","[82,85,41,12,94]","47","45","[""#005BA8"",""#38A600"",""#FF4100"",""#6F9CA4"",""#DA7100""]","[""blue"",""green"",""red"",""grey"",""orange""]","learning","[0.3333333333333333,0,0.3333333333333333,0.3333333333333333,0]"
"2236.800000013318","","","wizard-gem-trial","36","200488","0.0-36.0","wizard_gems","","","","2019-08-14T20:56:17Z","2019-08-14T21:05:41Z","563641","37.171.205.9","2019-08-10","w866ebf1p9o6598","false","2928854768-exa-8303994053-mple","4238.600000040606","[82,38,18,37,61]","51","45.66666666666666","[""#005BA8"",""#38A600"",""#FF4100"",""#6F9CA4"",""#DA7100""]","[""blue"",""green"",""red"",""grey"",""orange""]","learning","[0.3333333333333333,0,0.3333333333333333,0.3333333333333333,0]"
"2062.7999999560416","","","wizard-gem-trial","37","205082","0.0-37.0","wizard_gems","","","","2019-08-14T20:56:17Z","2019-08-14T21:05:41Z","563641","37.171.205.9","2019-08-10","w866ebf1p9o6598","false","2928854768-exa-8303994053-mple","4064.1999999643303","[8,53,14,3,70]","16","8.333333333333332","[""#005BA8"",""#38A600"",""#FF4100"",""#6F9CA4"",""#DA7100""]","[""blue"",""green"",""red"",""grey"",""orange""]","learning","[0.3333333333333333,0,0.3333333333333333,0.3333333333333333,0]"
"2603.3999999635853","","","wizard-gem-trial","38","210217","0.0-38.0","wizard_gems","","","","2019-08-14T20:56:17Z","2019-08-14T21:05:41Z","563641","37.171.205.9","2019-08-10","w866ebf1p9o6598","false","2928854768-exa-8303994053-mple","4605.099999986123","[12,63,51,98,40]","24","53.666666666666664","[""#005BA8"",""#38A600"",""#FF4100"",""#6F9CA4"",""#DA7100""]","[""blue"",""green"",""red"",""grey"",""orange""]","learning","[0.3333333333333333,0,0.3333333333333333,0.3333333333333333,0]"
"2619.699999981094","","","wizard-gem-trial","39","215366","0.0-39.0","wizard_gems","","","","2019-08-14T20:56:17Z","2019-08-14T21:05:41Z","563641","37.171.205.9","2019-08-10","w866ebf1p9o6598","false","2928854768-exa-8303994053-mple","4620.999999984633","[94,70,37,51,5]","40","60.666666666666664","[""#005BA8"",""#38A600"",""#FF4100"",""#6F9CA4"",""#DA7100""]","[""blue"",""green"",""red"",""grey"",""orange""]","learning","[0.3333333333333333,0,0.3333333333333333,0.3333333333333333,0]"
"2573.7000000081025","","","wizard-gem-trial","40","220470","0.0-40.0","wizard_gems","","","","2019-08-14T20:56:17Z","2019-08-14T21:05:41Z","563641","37.171.205.9","2019-08-10","w866ebf1p9o6598","false","2928854768-exa-8303994053-mple","4577.199999999721","[87,61,43,16,33]","48","48.666666666666664","[""#005BA8"",""#38A600"",""#FF4100"",""#6F9CA4"",""#DA7100""]","[""blue"",""green"",""red"",""grey"",""orange""]","learning","[0.3333333333333333,0,0.3333333333333333,0.3333333333333333,0]"
"2568.700000003446","","","wizard-gem-trial","41","225574","0.0-41.0","wizard_gems","","","","2019-08-14T20:56:17Z","2019-08-14T21:05:41Z","563641","37.171.205.9","2019-08-10","w866ebf1p9o6598","false","2928854768-exa-8303994053-mple","4570.000000006985","[86,3,33,78,80]","51","65.66666666666666","[""#005BA8"",""#38A600"",""#FF4100"",""#6F9CA4"",""#DA7100""]","[""blue"",""green"",""red"",""grey"",""orange""]","learning","[0.3333333333333333,0,0.3333333333333333,0.3333333333333333,0]"
"3003.8000000058673","","","wizard-gem-trial","42","231096","0.0-42.0","wizard_gems","","","","2019-08-14T20:56:17Z","2019-08-14T21:05:41Z","563641","37.171.205.9","2019-08-10","w866ebf1p9o6598","false","2928854768-exa-8303994053-mple","5005.500000028405","[89,26,13,17,86]","44","39.666666666666664","[""#005BA8"",""#38A600"",""#FF4100"",""#6F9CA4"",""#DA7100""]","[""blue"",""green"",""red"",""grey"",""orange""]","learning","[0.3333333333333333,0,0.3333333333333333,0.3333333333333333,0]"
"3539.600000018254","","","wizard-gem-trial","43","237184","0.0-43.0","wizard_gems","","","","2019-08-14T20:56:17Z","2019-08-14T21:05:41Z","563641","37.171.205.9","2019-08-10","w866ebf1p9o6598","false","2928854768-exa-8303994053-mple","5540.800000017043","[65,67,43,79,96]","63","62.33333333333333","[""#005BA8"",""#38A600"",""#FF4100"",""#6F9CA4"",""#DA7100""]","[""blue"",""green"",""red"",""grey"",""orange""]","learning","[0.3333333333333333,0,0.3333333333333333,0.3333333333333333,0]"
"3452.1999999997206","","","wizard-gem-trial","44","243180","0.0-44.0","wizard_gems","","","","2019-08-14T20:56:17Z","2019-08-14T21:05:41Z","563641","37.171.205.9","2019-08-10","w866ebf1p9o6598","false","2928854768-exa-8303994053-mple","5453.100000042468","[0,85,94,27,51]","47","40.33333333333333","[""#005BA8"",""#38A600"",""#FF4100"",""#6F9CA4"",""#DA7100""]","[""blue"",""green"",""red"",""grey"",""orange""]","learning","[0.3333333333333333,0,0.3333333333333333,0.3333333333333333,0]"
"5997.000000032131","","","wizard-gem-trial","45","251707","0.0-45.0","wizard_gems","","","","2019-08-14T20:56:17Z","2019-08-14T21:05:41Z","563641","37.171.205.9","2019-08-10","w866ebf1p9o6598","false","2928854768-exa-8303994053-mple","7998.4999999869615","[88,3,86,23,96]","63","65.66666666666667","[""#005BA8"",""#38A600"",""#FF4100"",""#6F9CA4"",""#DA7100""]","[""blue"",""green"",""red"",""grey"",""orange""]","learning","[0.3333333333333333,0,0.3333333333333333,0.3333333333333333,0]"
"3177.9000000096858","","","wizard-gem-trial","46","257414","0.0-46.0","wizard_gems","","","","2019-08-14T20:56:17Z","2019-08-14T21:05:41Z","563641","37.171.205.9","2019-08-10","w866ebf1p9o6598","false","2928854768-exa-8303994053-mple","5179.100000008475","[10,87,15,92,25]","43","39","[""#005BA8"",""#38A600"",""#FF4100"",""#6F9CA4"",""#DA7100""]","[""blue"",""green"",""red"",""grey"",""orange""]","learning","[0.3333333333333333,0,0.3333333333333333,0.3333333333333333,0]"
"3406.5999999875203","","","wizard-gem-trial","47","263349","0.0-47.0","wizard_gems","","","","2019-08-14T20:56:17Z","2019-08-14T21:05:41Z","563641","37.171.205.9","2019-08-10","w866ebf1p9o6598","false","2928854768-exa-8303994053-mple","5408.3999999566","[94,5,33,4,88]","37","43.666666666666664","[""#005BA8"",""#38A600"",""#FF4100"",""#6F9CA4"",""#DA7100""]","[""blue"",""green"",""red"",""grey"",""orange""]","learning","[0.3333333333333333,0,0.3333333333333333,0.3333333333333333,0]"
"2040.3999999980442","","","wizard-gem-trial","48","267916","0.0-48.0","wizard_gems","","","","2019-08-14T20:56:17Z","2019-08-14T21:05:41Z","563641","37.171.205.9","2019-08-10","w866ebf1p9o6598","false","2928854768-exa-8303994053-mple","4041.5999999968335","[48,48,72,35,70]","55","51.666666666666664","[""#005BA8"",""#38A600"",""#FF4100"",""#6F9CA4"",""#DA7100""]","[""blue"",""green"",""red"",""grey"",""orange""]","learning","[0.3333333333333333,0,0.3333333333333333,0.3333333333333333,0]"
"3642.3000000067987","","","wizard-gem-trial","49","274094","0.0-49.0","wizard_gems","","","","2019-08-14T20:56:17Z","2019-08-14T21:05:41Z","563641","37.171.205.9","2019-08-10","w866ebf1p9o6598","false","2928854768-exa-8303994053-mple","5644.1999999806285","[6,27,94,0,58]","56","33.33333333333333","[""#005BA8"",""#38A600"",""#FF4100"",""#6F9CA4"",""#DA7100""]","[""blue"",""green"",""red"",""grey"",""orange""]","learning","[0.3333333333333333,0,0.3333333333333333,0.3333333333333333,0]"
"1923.4000000287779","","","wizard-gem-trial","50","278547","0.0-50.0","wizard_gems","","","","2019-08-14T20:56:17Z","2019-08-14T21:05:41Z","563641","37.171.205.9","2019-08-10","w866ebf1p9o6598","false","2928854768-exa-8303994053-mple","3924.5000000228174","[87,51,28,87,64]","49","67.33333333333333","[""#005BA8"",""#38A600"",""#FF4100"",""#6F9CA4"",""#DA7100""]","[""blue"",""green"",""red"",""grey"",""orange""]","learning","[0.3333333333333333,0,0.3333333333333333,0.3333333333333333,0]"
"3503.8000000058673","","","wizard-gem-trial","51","284583","0.0-51.0","wizard_gems","","","","2019-08-14T20:56:17Z","2019-08-14T21:05:41Z","563641","37.171.205.9","2019-08-10","w866ebf1p9o6598","false","2928854768-exa-8303994053-mple","5504.899999999907","[81,72,29,66,98]","43","58.666666666666664","[""#005BA8"",""#38A600"",""#FF4100"",""#6F9CA4"",""#DA7100""]","[""blue"",""green"",""red"",""grey"",""orange""]","learning","[0.3333333333333333,0,0.3333333333333333,0.3333333333333333,0]"
"8051.100000040606","","","wizard-gem-trial","52","295148","0.0-52.0","wizard_gems","","","","2019-08-14T20:56:17Z","2019-08-14T21:05:41Z","563641","37.171.205.9","2019-08-10","w866ebf1p9o6598","false","2928854768-exa-8303994053-mple","10052.700000000186","[6,25,73,90,3]","34","56.33333333333333","[""#005BA8"",""#38A600"",""#FF4100"",""#6F9CA4"",""#DA7100""]","[""blue"",""green"",""red"",""grey"",""orange""]","learning","[0.3333333333333333,0,0.3333333333333333,0.3333333333333333,0]"
"2479.6000000205822","","","wizard-gem-trial","53","300157","0.0-53.0","wizard_gems","","","","2019-08-14T20:56:17Z","2019-08-14T21:05:41Z","563641","37.171.205.9","2019-08-10","w866ebf1p9o6598","false","2928854768-exa-8303994053-mple","4480.8000000193715","[61,92,2,1,9]","17","21.333333333333332","[""#005BA8"",""#38A600"",""#FF4100"",""#6F9CA4"",""#DA7100""]","[""blue"",""green"",""red"",""grey"",""orange""]","learning","[0.3333333333333333,0,0.3333333333333333,0.3333333333333333,0]"
"4734.699999971781","","","wizard-gem-trial","54","307420","0.0-54.0","wizard_gems","","","","2019-08-14T20:56:17Z","2019-08-14T21:05:41Z","563641","37.171.205.9","2019-08-10","w866ebf1p9o6598","false","2928854768-exa-8303994053-mple","6735.99999997532","[25,87,19,94,43]","34","46","[""#005BA8"",""#38A600"",""#FF4100"",""#6F9CA4"",""#DA7100""]","[""blue"",""green"",""red"",""grey"",""orange""]","learning","[0.3333333333333333,0,0.3333333333333333,0.3333333333333333,0]"
"2756.3000000081956","","","wizard-gem-trial","55","312695","0.0-55.0","wizard_gems","","","","2019-08-14T20:56:17Z","2019-08-14T21:05:41Z","563641","37.171.205.9","2019-08-10","w866ebf1p9o6598","false","2928854768-exa-8303994053-mple","4757.700000016484","[40,54,3,38,31]","22","27","[""#005BA8"",""#38A600"",""#FF4100"",""#6F9CA4"",""#DA7100""]","[""blue"",""green"",""red"",""grey"",""orange""]","learning","[0.3333333333333333,0,0.3333333333333333,0.3333333333333333,0]"
"2388.5000000009313","","","wizard-gem-trial","56","317615","0.0-56.0","wizard_gems","","","","2019-08-14T20:56:17Z","2019-08-14T21:05:41Z","563641","37.171.205.9","2019-08-10","w866ebf1p9o6598","false","2928854768-exa-8303994053-mple","4390.69999998901","[30,34,20,51,94]","16","33.666666666666664","[""#005BA8"",""#38A600"",""#FF4100"",""#6F9CA4"",""#DA7100""]","[""blue"",""green"",""red"",""grey"",""orange""]","learning","[0.3333333333333333,0,0.3333333333333333,0.3333333333333333,0]"
"2587.7999999793246","","","wizard-gem-trial","57","322733","0.0-57.0","wizard_gems","","","","2019-08-14T20:56:17Z","2019-08-14T21:05:41Z","563641","37.171.205.9","2019-08-10","w866ebf1p9o6598","false","2928854768-exa-8303994053-mple","4588.999999978114","[8,1,80,14,86]","21","34","[""#005BA8"",""#38A600"",""#FF4100"",""#6F9CA4"",""#DA7100""]","[""blue"",""green"",""red"",""grey"",""orange""]","learning","[0.3333333333333333,0,0.3333333333333333,0.3333333333333333,0]"
"5273.099999991246","","","wizard-gem-trial","58","330536","0.0-58.0","wizard_gems","","","","2019-08-14T20:56:17Z","2019-08-14T21:05:41Z","563641","37.171.205.9","2019-08-10","w866ebf1p9o6598","false","2928854768-exa-8303994053-mple","7274.700000009034","[45,35,9,4,68]","12","19.333333333333332","[""#005BA8"",""#38A600"",""#FF4100"",""#6F9CA4"",""#DA7100""]","[""blue"",""green"",""red"",""grey"",""orange""]","learning","[0.3333333333333333,0,0.3333333333333333,0.3333333333333333,0]"
"4374.599999981001","","","wizard-gem-trial","59","337440","0.0-59.0","wizard_gems","","","","2019-08-14T20:56:17Z","2019-08-14T21:05:41Z","563641","37.171.205.9","2019-08-10","w866ebf1p9o6598","false","2928854768-exa-8303994053-mple","6375.6000000284985","[71,51,49,54,30]","39","58","[""#005BA8"",""#38A600"",""#FF4100"",""#6F9CA4"",""#DA7100""]","[""blue"",""green"",""red"",""grey"",""orange""]","learning","[0.3333333333333333,0,0.3333333333333333,0.3333333333333333,0]"
"3009.0000000200234","","","wizard-gem-trial","60","342970","0.0-60.0","wizard_gems","","","","2019-08-14T20:56:17Z","2019-08-14T21:05:41Z","563641","37.171.205.9","2019-08-10","w866ebf1p9o6598","false","2928854768-exa-8303994053-mple","5010.599999979604","[89,26,17,43,27]","26","49.66666666666666","[""#005BA8"",""#38A600"",""#FF4100"",""#6F9CA4"",""#DA7100""]","[""blue"",""green"",""red"",""grey"",""orange""]","learning","[0.3333333333333333,0,0.3333333333333333,0.3333333333333333,0]"
"2312.3999999952503","","","wizard-gem-trial","61","347814","0.0-61.0","wizard_gems","","","","2019-08-14T20:56:17Z","2019-08-14T21:05:41Z","563641","37.171.205.9","2019-08-10","w866ebf1p9o6598","false","2928854768-exa-8303994053-mple","4313.49999998929","[92,91,13,20,30]","25","41.666666666666664","[""#005BA8"",""#38A600"",""#FF4100"",""#6F9CA4"",""#DA7100""]","[""blue"",""green"",""red"",""grey"",""orange""]","learning","[0.3333333333333333,0,0.3333333333333333,0.3333333333333333,0]"
"1891.8999999877997","","","wizard-gem-trial","62","352237","0.0-62.0","wizard_gems","","","","2019-08-14T20:56:17Z","2019-08-14T21:05:41Z","563641","37.171.205.9","2019-08-10","w866ebf1p9o6598","false","2928854768-exa-8303994053-mple","3892.8000000305474","[47,26,95,76,15]","57","72.66666666666666","[""#005BA8"",""#38A600"",""#FF4100"",""#6F9CA4"",""#DA7100""]","[""blue"",""green"",""red"",""grey"",""orange""]","learning","[0.3333333333333333,0,0.3333333333333333,0.3333333333333333,0]"
"1978.499999968335","","","wizard-gem-trial","63","356746","0.0-63.0","wizard_gems","","","","2019-08-14T20:56:17Z","2019-08-14T21:05:41Z","563641","37.171.205.9","2019-08-10","w866ebf1p9o6598","false","2928854768-exa-8303994053-mple","3979.899999976624","[73,41,4,5,63]","47","27.333333333333332","[""#005BA8"",""#38A600"",""#FF4100"",""#6F9CA4"",""#DA7100""]","[""blue"",""green"",""red"",""grey"",""orange""]","learning","[0.3333333333333333,0,0.3333333333333333,0.3333333333333333,0]"
"2006.5999999642372","","","wizard-gem-trial","64","361284","0.0-64.0","wizard_gems","","","","2019-08-14T20:56:17Z","2019-08-14T21:05:41Z","563641","37.171.205.9","2019-08-10","w866ebf1p9o6598","false","2928854768-exa-8303994053-mple","4007.999999972526","[0,1,48,2,12]","19","16.666666666666668","[""#005BA8"",""#38A600"",""#FF4100"",""#6F9CA4"",""#DA7100""]","[""blue"",""green"",""red"",""grey"",""orange""]","learning","[0.3333333333333333,0,0.3333333333333333,0.3333333333333333,0]"
"3087.199999950826","","","wizard-gem-trial","65","366894","0.0-65.0","wizard_gems","","","","2019-08-14T20:56:17Z","2019-08-14T21:05:41Z","563641","37.171.205.9","2019-08-10","w866ebf1p9o6598","false","2928854768-exa-8303994053-mple","5088.499999954365","[80,64,64,12,44]","50","52","[""#005BA8"",""#38A600"",""#FF4100"",""#6F9CA4"",""#DA7100""]","[""blue"",""green"",""red"",""grey"",""orange""]","learning","[0.3333333333333333,0,0.3333333333333333,0.3333333333333333,0]"
"2436.4000000059605","","","wizard-gem-trial","66","371867","0.0-66.0","wizard_gems","","","","2019-08-14T20:56:17Z","2019-08-14T21:05:41Z","563641","37.171.205.9","2019-08-10","w866ebf1p9o6598","false","2928854768-exa-8303994053-mple","4438.200000033248","[92,49,21,18,62]","40","43.666666666666664","[""#005BA8"",""#38A600"",""#FF4100"",""#6F9CA4"",""#DA7100""]","[""blue"",""green"",""red"",""grey"",""orange""]","learning","[0.3333333333333333,0,0.3333333333333333,0.3333333333333333,0]"
"1834.7000000067055","","","wizard-gem-trial","67","376234","0.0-67.0","wizard_gems","","","","2019-08-14T20:56:17Z","2019-08-14T21:05:41Z","563641","37.171.205.9","2019-08-10","w866ebf1p9o6598","false","2928854768-exa-8303994053-mple","3836.5000000339933","[99,40,86,17,18]","64","67.33333333333333","[""#005BA8"",""#38A600"",""#FF4100"",""#6F9CA4"",""#DA7100""]","[""blue"",""green"",""red"",""grey"",""orange""]","learning","[0.3333333333333333,0,0.3333333333333333,0.3333333333333333,0]"
"2563.1999999750406","","","wizard-gem-trial","68","381323","0.0-68.0","wizard_gems","","","","2019-08-14T20:56:17Z","2019-08-14T21:05:41Z","563641","37.171.205.9","2019-08-10","w866ebf1p9o6598","false","2928854768-exa-8303994053-mple","4564.699999988079","[96,72,71,100,59]","69","89","[""#005BA8"",""#38A600"",""#FF4100"",""#6F9CA4"",""#DA7100""]","[""blue"",""green"",""red"",""grey"",""orange""]","learning","[0.3333333333333333,0,0.3333333333333333,0.3333333333333333,0]"
"2284.299999999348","","","wizard-gem-trial","69","386152","0.0-69.0","wizard_gems","","","","2019-08-14T20:56:17Z","2019-08-14T21:05:41Z","563641","37.171.205.9","2019-08-10","w866ebf1p9o6598","false","2928854768-exa-8303994053-mple","4286.000000021886","[71,80,38,69,75]","76","59.33333333333333","[""#005BA8"",""#38A600"",""#FF4100"",""#6F9CA4"",""#DA7100""]","[""blue"",""green"",""red"",""grey"",""orange""]","learning","[0.3333333333333333,0,0.3333333333333333,0.3333333333333333,0]"
"2205.6000000447966","","","wizard-gem-trial","70","390889","0.0-70.0","wizard_gems","","","","2019-08-14T20:56:17Z","2019-08-14T21:05:41Z","563641","37.171.205.9","2019-08-10","w866ebf1p9o6598","false","2928854768-exa-8303994053-mple","4206.999999994878","[78,4,8,79,82]","59","55","[""#005BA8"",""#38A600"",""#FF4100"",""#6F9CA4"",""#DA7100""]","[""blue"",""green"",""red"",""grey"",""orange""]","learning","[0.3333333333333333,0,0.3333333333333333,0.3333333333333333,0]"
"5348.100000002887","","","wizard-gem-trial","71","398767","0.0-71.0","wizard_gems","","","","2019-08-14T20:56:17Z","2019-08-14T21:05:41Z","563641","37.171.205.9","2019-08-10","w866ebf1p9o6598","false","2928854768-exa-8303994053-mple","7349.500000011176","[87,93,23,73,50]","51","61","[""#005BA8"",""#38A600"",""#FF4100"",""#6F9CA4"",""#DA7100""]","[""blue"",""green"",""red"",""grey"",""orange""]","learning","[0.3333333333333333,0,0.3333333333333333,0.3333333333333333,0]"
"2245.8000000333413","","","wizard-gem-trial","72","403540","0.0-72.0","wizard_gems","","","","2019-08-14T20:56:17Z","2019-08-14T21:05:41Z","563641","37.171.205.9","2019-08-10","w866ebf1p9o6598","false","2928854768-exa-8303994053-mple","4247.800000011921","[60,43,16,1,68]","20","25.666666666666664","[""#005BA8"",""#38A600"",""#FF4100"",""#6F9CA4"",""#DA7100""]","[""blue"",""green"",""red"",""grey"",""orange""]","learning","[0.3333333333333333,0,0.3333333333333333,0.3333333333333333,0]"
"2504.799999995157","","","wizard-gem-trial","73","408574","0.0-73.0","wizard_gems","","","","2019-08-14T20:56:17Z","2019-08-14T21:05:41Z","563641","37.171.205.9","2019-08-10","w866ebf1p9o6598","false","2928854768-exa-8303994053-mple","4506.699999968987","[4,6,52,16,67]","31","23.999999999999996","[""#005BA8"",""#38A600"",""#FF4100"",""#6F9CA4"",""#DA7100""]","[""blue"",""green"",""red"",""grey"",""orange""]","learning","[0.3333333333333333,0,0.3333333333333333,0.3333333333333333,0]"
"4226.499999989755","","","wizard-gem-trial","74","415324","0.0-74.0","wizard_gems","","","","2019-08-14T20:56:17Z","2019-08-14T21:05:41Z","563641","37.171.205.9","2019-08-10","w866ebf1p9o6598","false","2928854768-exa-8303994053-mple","6227.7999999932945","[59,4,76,31,93]","41","55.33333333333333","[""#005BA8"",""#38A600"",""#FF4100"",""#6F9CA4"",""#DA7100""]","[""blue"",""green"",""red"",""grey"",""orange""]","learning","[0.3333333333333333,0,0.3333333333333333,0.3333333333333333,0]"
"2925.099999993108","","","wizard-gem-trial","75","420781","0.0-75.0","wizard_gems","","","","2019-08-14T20:56:17Z","2019-08-14T21:05:41Z","563641","37.171.205.9","2019-08-10","w866ebf1p9o6598","false","2928854768-exa-8303994053-mple","4927.399999985937","[53,58,50,93,11]","35","65.33333333333333","[""#005BA8"",""#38A600"",""#FF4100"",""#6F9CA4"",""#DA7100""]","[""blue"",""green"",""red"",""grey"",""orange""]","learning","[0.3333333333333333,0,0.3333333333333333,0.3333333333333333,0]"
"2023.1999999959953","","","wizard-gem-trial","76","425334","0.0-76.0","wizard_gems","","","","2019-08-14T20:56:17Z","2019-08-14T21:05:41Z","563641","37.171.205.9","2019-08-10","w866ebf1p9o6598","false","2928854768-exa-8303994053-mple","4024.299999990035","[37,13,65,0,68]","48","34","[""#005BA8"",""#38A600"",""#FF4100"",""#6F9CA4"",""#DA7100""]","[""blue"",""green"",""red"",""grey"",""orange""]","learning","[0.3333333333333333,0,0.3333333333333333,0.3333333333333333,0]"
"2139.2999999807216","","","wizard-gem-trial","77","430020","0.0-77.0","wizard_gems","","","","2019-08-14T20:56:17Z","2019-08-14T21:05:41Z","563641","37.171.205.9","2019-08-10","w866ebf1p9o6598","false","2928854768-exa-8303994053-mple","4141.79999998305","[37,39,18,55,39]","38","36.666666666666664","[""#005BA8"",""#38A600"",""#FF4100"",""#6F9CA4"",""#DA7100""]","[""blue"",""green"",""red"",""grey"",""orange""]","learning","[0.3333333333333333,0,0.3333333333333333,0.3333333333333333,0]"
"3416.4999999920838","","","wizard-gem-trial","78","435967","0.0-78.0","wizard_gems","","","","2019-08-14T20:56:17Z","2019-08-14T21:05:41Z","563641","37.171.205.9","2019-08-10","w866ebf1p9o6598","false","2928854768-exa-8303994053-mple","5417.699999990873","[90,27,70,95,39]","65","85","[""#005BA8"",""#38A600"",""#FF4100"",""#6F9CA4"",""#DA7100""]","[""blue"",""green"",""red"",""grey"",""orange""]","learning","[0.3333333333333333,0,0.3333333333333333,0.3333333333333333,0]"
"2211.8999999947846","","","wizard-gem-trial","79","440707","0.0-79.0","wizard_gems","","","","2019-08-14T20:56:17Z","2019-08-14T21:05:41Z","563641","37.171.205.9","2019-08-10","w866ebf1p9o6598","false","2928854768-exa-8303994053-mple","4213.799999968614","[87,77,36,30,31]","54","51","[""#005BA8"",""#38A600"",""#FF4100"",""#6F9CA4"",""#DA7100""]","[""blue"",""green"",""red"",""grey"",""orange""]","learning","[0.3333333333333333,0,0.3333333333333333,0.3333333333333333,0]"
"1795.0000000419095","","","wizard-gem-trial","80","445029","0.0-80.0","wizard_gems","","","","2019-08-14T20:56:17Z","2019-08-14T21:05:41Z","563641","37.171.205.9","2019-08-10","w866ebf1p9o6598","false","2928854768-exa-8303994053-mple","3797.000000020489","[33,55,38,51,84]","63","40.666666666666664","[""#005BA8"",""#38A600"",""#FF4100"",""#6F9CA4"",""#DA7100""]","[""blue"",""green"",""red"",""grey"",""orange""]","learning","[0.3333333333333333,0,0.3333333333333333,0.3333333333333333,0]"
"2067.800000018906","","","wizard-gem-trial","81","449628","0.0-81.0","wizard_gems","","","","2019-08-14T20:56:17Z","2019-08-14T21:05:41Z","563641","37.171.205.9","2019-08-10","w866ebf1p9o6598","false","2928854768-exa-8303994053-mple","4070.000000006985","[11,5,35,22,46]","31","22.666666666666664","[""#005BA8"",""#38A600"",""#FF4100"",""#6F9CA4"",""#DA7100""]","[""blue"",""green"",""red"",""grey"",""orange""]","learning","[0.3333333333333333,0,0.3333333333333333,0.3333333333333333,0]"
"5103.999999992084","","","wizard-gem-trial","82","457261","0.0-82.0","wizard_gems","","","","2019-08-14T20:56:17Z","2019-08-14T21:05:41Z","563641","37.171.205.9","2019-08-10","w866ebf1p9o6598","false","2928854768-exa-8303994053-mple","7105.4000000003725","[22,32,52,39,0]","29","37.666666666666664","[""#005BA8"",""#38A600"",""#FF4100"",""#6F9CA4"",""#DA7100""]","[""blue"",""green"",""red"",""grey"",""orange""]","learning","[0.3333333333333333,0,0.3333333333333333,0.3333333333333333,0]"
"20603.999999992084","","","wizard-gem-trial","83","480397","0.0-83.0","wizard_gems","","","","2019-08-14T20:56:17Z","2019-08-14T21:05:41Z","563641","37.171.205.9","2019-08-10","w866ebf1p9o6598","false","2928854768-exa-8303994053-mple","22605.90000002412","[67,78,31,0,10]","27","32.666666666666664","[""#005BA8"",""#38A600"",""#FF4100"",""#6F9CA4"",""#DA7100""]","[""blue"",""green"",""red"",""grey"",""orange""]","learning","[0.3333333333333333,0,0.3333333333333333,0.3333333333333333,0]"
"2874.400000029709","","","wizard-gem-trial","84","485791","0.0-84.0","wizard_gems","","","","2019-08-14T20:56:17Z","2019-08-14T21:05:41Z","563641","37.171.205.9","2019-08-10","w866ebf1p9o6598","false","2928854768-exa-8303994053-mple","4875.500000023749","[82,53,98,90,23]","89","90","[""#005BA8"",""#38A600"",""#FF4100"",""#6F9CA4"",""#DA7100""]","[""blue"",""green"",""red"",""grey"",""orange""]","learning","[0.3333333333333333,0,0.3333333333333333,0.3333333333333333,0]"
"2403.7000000244007","","","wizard-gem-trial","85","490726","0.0-85.0","wizard_gems","","","","2019-08-14T20:56:17Z","2019-08-14T21:05:41Z","563641","37.171.205.9","2019-08-10","w866ebf1p9o6598","false","2928854768-exa-8303994053-mple","4404.90000002319","[8,42,77,17,56]","33","34","[""#005BA8"",""#38A600"",""#FF4100"",""#6F9CA4"",""#DA7100""]","[""blue"",""green"",""red"",""grey"",""orange""]","learning","[0.3333333333333333,0,0.3333333333333333,0.3333333333333333,0]"
"2917.399999976624","","","wizard-gem-trial","86","496173","0.0-86.0","wizard_gems","","","","2019-08-14T20:56:17Z","2019-08-14T21:05:41Z","563641","37.171.205.9","2019-08-10","w866ebf1p9o6598","false","2928854768-exa-8303994053-mple","4920.6000000122","[98,28,40,24,95]","47","54","[""#005BA8"",""#38A600"",""#FF4100"",""#6F9CA4"",""#DA7100""]","[""blue"",""green"",""red"",""grey"",""orange""]","learning","[0.3333333333333333,0,0.3333333333333333,0.3333333333333333,0]"
"2942.5000000046566","","","wizard-gem-trial","87","501645","0.0-87.0","wizard_gems","","","","2019-08-14T20:56:17Z","2019-08-14T21:05:41Z","563641","37.171.205.9","2019-08-10","w866ebf1p9o6598","false","2928854768-exa-8303994053-mple","4943.499999993946","[67,23,63,16,50]","51","48.666666666666664","[""#005BA8"",""#38A600"",""#FF4100"",""#6F9CA4"",""#DA7100""]","[""blue"",""green"",""red"",""grey"",""orange""]","learning","[0.3333333333333333,0,0.3333333333333333,0.3333333333333333,0]"
"3082.5000000186265","","","wizard-gem-trial","88","507260","0.0-88.0","wizard_gems","","","","2019-08-14T20:56:17Z","2019-08-14T21:05:41Z","563641","37.171.205.9","2019-08-10","w866ebf1p9o6598","false","2928854768-exa-8303994053-mple","5084.499999997206","[82,99,9,87,94]","37","59.33333333333333","[""#005BA8"",""#38A600"",""#FF4100"",""#6F9CA4"",""#DA7100""]","[""blue"",""green"",""red"",""grey"",""orange""]","learning","[0.3333333333333333,0,0.3333333333333333,0.3333333333333333,0]"
"2235.09999999078","","","wizard-gem-trial","89","512027","0.0-89.0","wizard_gems","","","","2019-08-14T20:56:17Z","2019-08-14T21:05:41Z","563641","37.171.205.9","2019-08-10","w866ebf1p9o6598","false","2928854768-exa-8303994053-mple","4236.700000008568","[91,75,27,74,55]","52","63.99999999999999","[""#005BA8"",""#38A600"",""#FF4100"",""#6F9CA4"",""#DA7100""]","[""blue"",""green"",""red"",""grey"",""orange""]","learning","[0.3333333333333333,0,0.3333333333333333,0.3333333333333333,0]"
"2127.9999999678694","","","wizard-gem-trial","90","516672","0.0-90.0","wizard_gems","","","","2019-08-14T20:56:17Z","2019-08-14T21:05:41Z","563641","37.171.205.9","2019-08-10","w866ebf1p9o6598","false","2928854768-exa-8303994053-mple","4129.499999980908","[81,14,87,88,98]","76","85.33333333333333","[""#005BA8"",""#38A600"",""#FF4100"",""#6F9CA4"",""#DA7100""]","[""blue"",""green"",""red"",""grey"",""orange""]","learning","[0.3333333333333333,0,0.3333333333333333,0.3333333333333333,0]"
"3637.899999972433","","","wizard-gem-trial","91","522838","0.0-91.0","wizard_gems","","","","2019-08-14T20:56:17Z","2019-08-14T21:05:41Z","563641","37.171.205.9","2019-08-10","w866ebf1p9o6598","false","2928854768-exa-8303994053-mple","5639.499999990221","[46,93,23,51,77]","36","40","[""#005BA8"",""#38A600"",""#FF4100"",""#6F9CA4"",""#DA7100""]","[""blue"",""green"",""red"",""grey"",""orange""]","learning","[0.3333333333333333,0,0.3333333333333333,0.3333333333333333,0]"
"2119.399999966845","","","wizard-gem-trial","92","527486","0.0-92.0","wizard_gems","","","","2019-08-14T20:56:17Z","2019-08-14T21:05:41Z","563641","37.171.205.9","2019-08-10","w866ebf1p9o6598","false","2928854768-exa-8303994053-mple","4120.799999975134","[48,74,98,41,77]","74","62.33333333333333","[""#005BA8"",""#38A600"",""#FF4100"",""#6F9CA4"",""#DA7100""]","[""blue"",""green"",""red"",""grey"",""orange""]","learning","[0.3333333333333333,0,0.3333333333333333,0.3333333333333333,0]"
"2601.699999999255","","","wizard-gem-trial","93","532614","0.0-93.0","wizard_gems","","","","2019-08-14T20:56:17Z","2019-08-14T21:05:41Z","563641","37.171.205.9","2019-08-10","w866ebf1p9o6598","false","2928854768-exa-8303994053-mple","4603.199999954086","[14,35,10,38,11]","19","20.666666666666664","[""#005BA8"",""#38A600"",""#FF4100"",""#6F9CA4"",""#DA7100""]","[""blue"",""green"",""red"",""grey"",""orange""]","learning","[0.3333333333333333,0,0.3333333333333333,0.3333333333333333,0]"
"2614.899999985937","","","wizard-gem-trial","94","537758","0.0-94.0","wizard_gems","","","","2019-08-14T20:56:17Z","2019-08-14T21:05:41Z","563641","37.171.205.9","2019-08-10","w866ebf1p9o6598","false","2928854768-exa-8303994053-mple","4615.999999979977","[49,83,52,21,60]","55","40.666666666666664","[""#005BA8"",""#38A600"",""#FF4100"",""#6F9CA4"",""#DA7100""]","[""blue"",""green"",""red"",""grey"",""orange""]","learning","[0.3333333333333333,0,0.3333333333333333,0.3333333333333333,0]"
"2255.5999999749474","","","wizard-gem-trial","95","542542","0.0-95.0","wizard_gems","","","","2019-08-14T20:56:17Z","2019-08-14T21:05:41Z","563641","37.171.205.9","2019-08-10","w866ebf1p9o6598","false","2928854768-exa-8303994053-mple","4256.899999978486","[20,70,92,5,55]","45","38.99999999999999","[""#005BA8"",""#38A600"",""#FF4100"",""#6F9CA4"",""#DA7100""]","[""blue"",""green"",""red"",""grey"",""orange""]","learning","[0.3333333333333333,0,0.3333333333333333,0.3333333333333333,0]"
"1886.7999999783933","","","wizard-gem-trial","96","546962","0.0-96.0","wizard_gems","","","","2019-08-14T20:56:17Z","2019-08-14T21:05:41Z","563641","37.171.205.9","2019-08-10","w866ebf1p9o6598","false","2928854768-exa-8303994053-mple","3888.700000010431","[79,16,93,16,40]","39","62.666666666666664","[""#005BA8"",""#38A600"",""#FF4100"",""#6F9CA4"",""#DA7100""]","[""blue"",""green"",""red"",""grey"",""orange""]","learning","[0.3333333333333333,0,0.3333333333333333,0.3333333333333333,0]"
"1904.7000000136904","","","wizard-gem-trial","97","551396","0.0-97.0","wizard_gems","","","","2019-08-14T20:56:17Z","2019-08-14T21:05:41Z","563641","37.171.205.9","2019-08-10","w866ebf1p9o6598","false","2928854768-exa-8303994053-mple","3905.80000000773","[56,14,77,90,94]","87","74.33333333333333","[""#005BA8"",""#38A600"",""#FF4100"",""#6F9CA4"",""#DA7100""]","[""blue"",""green"",""red"",""grey"",""orange""]","learning","[0.3333333333333333,0,0.3333333333333333,0.3333333333333333,0]"
"2345.09999997681","","","wizard-gem-trial","98","556274","0.0-98.0","wizard_gems","","","","2019-08-14T20:56:17Z","2019-08-14T21:05:41Z","563641","37.171.205.9","2019-08-10","w866ebf1p9o6598","false","2928854768-exa-8303994053-mple","4346.799999999348","[13,98,98,65,2]","82","58.666666666666664","[""#005BA8"",""#38A600"",""#FF4100"",""#6F9CA4"",""#DA7100""]","[""blue"",""green"",""red"",""grey"",""orange""]","learning","[0.3333333333333333,0,0.3333333333333333,0.3333333333333333,0]"
"2931.700000015553","","","wizard-gem-trial","99","561735","0.0-99.0","wizard_gems","","","","2019-08-14T20:56:17Z","2019-08-14T21:05:41Z","563641","37.171.205.9","2019-08-10","w866ebf1p9o6598","false","2928854768-exa-8303994053-mple","4932.700000004843","[89,57,47,14,63]","56","49.99999999999999","[""#005BA8"",""#38A600"",""#FF4100"",""#6F9CA4"",""#DA7100""]","[""blue"",""green"",""red"",""grey"",""orange""]","learning","[0.3333333333333333,0,0.3333333333333333,0.3333333333333333,0]"
"2931.700000015553","","","wizard-gem-trial","100","562642","0.0-100.0","wizard_gems","","","","2019-08-14T20:56:17Z","2019-08-14T21:05:41Z","563641","37.171.205.9","2019-08-10","w866ebf1p9o6598","false","2928854768-exa-8303994053-mple","5838.699999963865","[89,57,47,14,63]","56","49.99999999999999","[""#005BA8"",""#38A600"",""#FF4100"",""#6F9CA4"",""#DA7100""]","[""blue"",""green"",""red"",""grey"",""orange""]","learning","[0.3333333333333333,0,0.3333333333333333,0.3333333333333333,0]"
