"rt","url","experiment_phase","trial_type","trial_index","time_elapsed","internal_node_id","experiment_name","workerId","assignmentId","hitId","experiment_start_time","experiment_end_time","total_time","ip_address","version_date","anon_id","demo_mode","completion_code","page_rt","gem_values","response","correct_answer","gem_colors","gem_color_names","phase","gem_weights"
"4345","src/html/instructions.html","instructions","render-mustache-template","0","4486","0.0-0.0","wizard_gems","","","","2019-08-14T19:00:36Z","2019-08-14T19:10:11Z","575244","216.165.95.137","2019-08-10","5jf57tmn5kvcef1","false","0220777471-exa-3020622231-mple","","","","","","","",""
"6468","","","wizard-gem-trial","1","13465","0.0-1.0","wizard_gems","","","","2019-08-14T19:00:36Z","2019-08-14T19:10:11Z","575244","216.165.95.137","2019-08-10","5jf57tmn5kvcef1","false","0220777471-exa-3020622231-mple","8471","[75,50,88,5,48]","76","62","[""#FF4100"",""#38A600"",""#6F9CA4"",""#005BA8"",""#DA7100""]","[""red"",""green"",""grey"",""blue"",""orange""]","learning","[0,0.3333333333333333,0.3333333333333333,0,0.3333333333333333]"
"4246","","","wizard-gem-trial","2","20217","0.0-2.0","wizard_gems","","","","2019-08-14T19:00:36Z","2019-08-14T19:10:11Z","575244","216.165.95.137","2019-08-10","5jf57tmn5kvcef1","false","0220777471-exa-3020622231-mple","6247","[75,44,55,56,88]","56","62.33333333333333","[""#FF4100"",""#38A600"",""#6F9CA4"",""#005BA8"",""#DA7100""]","[""red"",""green"",""grey"",""blue"",""orange""]","learning","[0,0.3333333333333333,0.3333333333333333,0,0.3333333333333333]"
"4861","","","wizard-gem-trial","3","27584","0.0-3.0","wizard_gems","","","","2019-08-14T19:00:36Z","2019-08-14T19:10:11Z","575244","216.165.95.137","2019-08-10","5jf57tmn5kvcef1","false","0220777471-exa-3020622231-mple","6863","[73,47,78,98,13]","69","46","[""#FF4100"",""#38A600"",""#6F9CA4"",""#005BA8"",""#DA7100""]","[""red"",""green"",""grey"",""blue"",""orange""]","learning","[0,0.3333333333333333,0.3333333333333333,0,0.3333333333333333]"
"2214","","","wizard-gem-trial","4","32303","0.0-4.0","wizard_gems","","","","2019-08-14T19:00:36Z","2019-08-14T19:10:11Z","575244","216.165.95.137","2019-08-10","5jf57tmn5kvcef1","false","0220777471-exa-3020622231-mple","4214.999999999996","[0,24,87,47,22]","22","44.333333333333336","[""#FF4100"",""#38A600"",""#6F9CA4"",""#005BA8"",""#DA7100""]","[""red"",""green"",""grey"",""blue"",""orange""]","learning","[0,0.3333333333333333,0.3333333333333333,0,0.3333333333333333]"
"4944","","","wizard-gem-trial","5","39756","0.0-5.0","wizard_gems","","","","2019-08-14T19:00:36Z","2019-08-14T19:10:11Z","575244","216.165.95.137","2019-08-10","5jf57tmn5kvcef1","false","0220777471-exa-3020622231-mple","6946","[35,26,35,69,63]","46","41.33333333333333","[""#FF4100"",""#38A600"",""#6F9CA4"",""#005BA8"",""#DA7100""]","[""red"",""green"",""grey"",""blue"",""orange""]","learning","[0,0.3333333333333333,0.3333333333333333,0,0.3333333333333333]"
"2807","","","wizard-gem-trial","6","45068","0.0-6.0","wizard_gems","","","","2019-08-14T19:00:36Z","2019-08-14T19:10:11Z","575244","216.165.95.137","2019-08-10","5jf57tmn5kvcef1","false","0220777471-exa-3020622231-mple","4808","[28,47,50,99,26]","41","40.99999999999999","[""#FF4100"",""#38A600"",""#6F9CA4"",""#005BA8"",""#DA7100""]","[""red"",""green"",""grey"",""blue"",""orange""]","learning","[0,0.3333333333333333,0.3333333333333333,0,0.3333333333333333]"
"2318","","","wizard-gem-trial","7","49892","0.0-7.0","wizard_gems","","","","2019-08-14T19:00:36Z","2019-08-14T19:10:11Z","575244","216.165.95.137","2019-08-10","5jf57tmn5kvcef1","false","0220777471-exa-3020622231-mple","4320.000000000007","[28,14,36,59,9]","31","19.666666666666664","[""#FF4100"",""#38A600"",""#6F9CA4"",""#005BA8"",""#DA7100""]","[""red"",""green"",""grey"",""blue"",""orange""]","learning","[0,0.3333333333333333,0.3333333333333333,0,0.3333333333333333]"
"3586","","","wizard-gem-trial","8","55981","0.0-8.0","wizard_gems","","","","2019-08-14T19:00:36Z","2019-08-14T19:10:11Z","575244","216.165.95.137","2019-08-10","5jf57tmn5kvcef1","false","0220777471-exa-3020622231-mple","5587","[40,42,54,1,23]","32","39.666666666666664","[""#FF4100"",""#38A600"",""#6F9CA4"",""#005BA8"",""#DA7100""]","[""red"",""green"",""grey"",""blue"",""orange""]","learning","[0,0.3333333333333333,0.3333333333333333,0,0.3333333333333333]"
"3122","","","wizard-gem-trial","9","61608","0.0-9.0","wizard_gems","","","","2019-08-14T19:00:36Z","2019-08-14T19:10:11Z","575244","216.165.95.137","2019-08-10","5jf57tmn5kvcef1","false","0220777471-exa-3020622231-mple","5123","[55,73,85,79,22]","47","60","[""#FF4100"",""#38A600"",""#6F9CA4"",""#005BA8"",""#DA7100""]","[""red"",""green"",""grey"",""blue"",""orange""]","learning","[0,0.3333333333333333,0.3333333333333333,0,0.3333333333333333]"
"2490","","","wizard-gem-trial","10","66602","0.0-10.0","wizard_gems","","","","2019-08-14T19:00:36Z","2019-08-14T19:10:11Z","575244","216.165.95.137","2019-08-10","5jf57tmn5kvcef1","false","0220777471-exa-3020622231-mple","4492","[33,10,47,3,70]","10","42.33333333333333","[""#FF4100"",""#38A600"",""#6F9CA4"",""#005BA8"",""#DA7100""]","[""red"",""green"",""grey"",""blue"",""orange""]","learning","[0,0.3333333333333333,0.3333333333333333,0,0.3333333333333333]"
"2465","","","wizard-gem-trial","11","71572","0.0-11.0","wizard_gems","","","","2019-08-14T19:00:36Z","2019-08-14T19:10:11Z","575244","216.165.95.137","2019-08-10","5jf57tmn5kvcef1","false","0220777471-exa-3020622231-mple","4466","[51,92,4,17,35]","66","43.666666666666664","[""#FF4100"",""#38A600"",""#6F9CA4"",""#005BA8"",""#DA7100""]","[""red"",""green"",""grey"",""blue"",""orange""]","learning","[0,0.3333333333333333,0.3333333333333333,0,0.3333333333333333]"
"2641","","","wizard-gem-trial","12","76720","0.0-12.0","wizard_gems","","","","2019-08-14T19:00:36Z","2019-08-14T19:10:11Z","575244","216.165.95.137","2019-08-10","5jf57tmn5kvcef1","false","0220777471-exa-3020622231-mple","4642","[70,25,62,73,27]","36","38","[""#FF4100"",""#38A600"",""#6F9CA4"",""#005BA8"",""#DA7100""]","[""red"",""green"",""grey"",""blue"",""orange""]","learning","[0,0.3333333333333333,0.3333333333333333,0,0.3333333333333333]"
"16672","","","wizard-gem-trial","13","95897","0.0-13.0","wizard_gems","","","","2019-08-14T19:00:36Z","2019-08-14T19:10:11Z","575244","216.165.95.137","2019-08-10","5jf57tmn5kvcef1","false","0220777471-exa-3020622231-mple","18674.000000000015","[73,52,42,10,98]","68","64","[""#FF4100"",""#38A600"",""#6F9CA4"",""#005BA8"",""#DA7100""]","[""red"",""green"",""grey"",""blue"",""orange""]","learning","[0,0.3333333333333333,0.3333333333333333,0,0.3333333333333333]"
"4682.999999999985","","","wizard-gem-trial","14","103086","0.0-14.0","wizard_gems","","","","2019-08-14T19:00:36Z","2019-08-14T19:10:11Z","575244","216.165.95.137","2019-08-10","5jf57tmn5kvcef1","false","0220777471-exa-3020622231-mple","6684.999999999985","[40,20,84,33,60]","62","54.666666666666664","[""#FF4100"",""#38A600"",""#6F9CA4"",""#005BA8"",""#DA7100""]","[""red"",""green"",""grey"",""blue"",""orange""]","learning","[0,0.3333333333333333,0.3333333333333333,0,0.3333333333333333]"
"4267","","","wizard-gem-trial","15","109856","0.0-15.0","wizard_gems","","","","2019-08-14T19:00:36Z","2019-08-14T19:10:11Z","575244","216.165.95.137","2019-08-10","5jf57tmn5kvcef1","false","0220777471-exa-3020622231-mple","6268","[3,98,60,92,7]","55","55","[""#FF4100"",""#38A600"",""#6F9CA4"",""#005BA8"",""#DA7100""]","[""red"",""green"",""grey"",""blue"",""orange""]","learning","[0,0.3333333333333333,0.3333333333333333,0,0.3333333333333333]"
"2113","","","wizard-gem-trial","16","114478","0.0-16.0","wizard_gems","","","","2019-08-14T19:00:36Z","2019-08-14T19:10:11Z","575244","216.165.95.137","2019-08-10","5jf57tmn5kvcef1","false","0220777471-exa-3020622231-mple","4116","[51,6,11,39,83]","51","33.33333333333333","[""#FF4100"",""#38A600"",""#6F9CA4"",""#005BA8"",""#DA7100""]","[""red"",""green"",""grey"",""blue"",""orange""]","learning","[0,0.3333333333333333,0.3333333333333333,0,0.3333333333333333]"
"1849","","","wizard-gem-trial","17","118832","0.0-17.0","wizard_gems","","","","2019-08-14T19:00:36Z","2019-08-14T19:10:11Z","575244","216.165.95.137","2019-08-10","5jf57tmn5kvcef1","false","0220777471-exa-3020622231-mple","3850","[49,47,42,5,55]","49","48","[""#FF4100"",""#38A600"",""#6F9CA4"",""#005BA8"",""#DA7100""]","[""red"",""green"",""grey"",""blue"",""orange""]","learning","[0,0.3333333333333333,0.3333333333333333,0,0.3333333333333333]"
"1840","","","wizard-gem-trial","18","123177","0.0-18.0","wizard_gems","","","","2019-08-14T19:00:36Z","2019-08-14T19:10:11Z","575244","216.165.95.137","2019-08-10","5jf57tmn5kvcef1","false","0220777471-exa-3020622231-mple","3841","[14,60,80,24,76]","67","72","[""#FF4100"",""#38A600"",""#6F9CA4"",""#005BA8"",""#DA7100""]","[""red"",""green"",""grey"",""blue"",""orange""]","learning","[0,0.3333333333333333,0.3333333333333333,0,0.3333333333333333]"
"1807","","","wizard-gem-trial","19","127492","0.0-19.0","wizard_gems","","","","2019-08-14T19:00:36Z","2019-08-14T19:10:11Z","575244","216.165.95.137","2019-08-10","5jf57tmn5kvcef1","false","0220777471-exa-3020622231-mple","3810","[48,93,92,38,74]","84","86.33333333333333","[""#FF4100"",""#38A600"",""#6F9CA4"",""#005BA8"",""#DA7100""]","[""red"",""green"",""grey"",""blue"",""orange""]","learning","[0,0.3333333333333333,0.3333333333333333,0,0.3333333333333333]"
"1968.0000000000146","","","wizard-gem-trial","20","131965","0.0-20.0","wizard_gems","","","","2019-08-14T19:00:36Z","2019-08-14T19:10:11Z","575244","216.165.95.137","2019-08-10","5jf57tmn5kvcef1","false","0220777471-exa-3020622231-mple","3969.0000000000146","[78,81,82,1,40]","85","67.66666666666666","[""#FF4100"",""#38A600"",""#6F9CA4"",""#005BA8"",""#DA7100""]","[""red"",""green"",""grey"",""blue"",""orange""]","learning","[0,0.3333333333333333,0.3333333333333333,0,0.3333333333333333]"
"3843","","","wizard-gem-trial","21","138313","0.0-21.0","wizard_gems","","","","2019-08-14T19:00:36Z","2019-08-14T19:10:11Z","575244","216.165.95.137","2019-08-10","5jf57tmn5kvcef1","false","0220777471-exa-3020622231-mple","5844","[74,55,23,19,24]","44","34","[""#FF4100"",""#38A600"",""#6F9CA4"",""#005BA8"",""#DA7100""]","[""red"",""green"",""grey"",""blue"",""orange""]","learning","[0,0.3333333333333333,0.3333333333333333,0,0.3333333333333333]"
"1816","","","wizard-gem-trial","22","142633","0.0-22.0","wizard_gems","","","","2019-08-14T19:00:36Z","2019-08-14T19:10:11Z","575244","216.165.95.137","2019-08-10","5jf57tmn5kvcef1","false","0220777471-exa-3020622231-mple","3818","[42,70,96,17,52]","76","72.66666666666666","[""#FF4100"",""#38A600"",""#6F9CA4"",""#005BA8"",""#DA7100""]","[""red"",""green"",""grey"",""blue"",""orange""]","learning","[0,0.3333333333333333,0.3333333333333333,0,0.3333333333333333]"
"2433","","","wizard-gem-trial","23","147572","0.0-23.0","wizard_gems","","","","2019-08-14T19:00:36Z","2019-08-14T19:10:11Z","575244","216.165.95.137","2019-08-10","5jf57tmn5kvcef1","false","0220777471-exa-3020622231-mple","4436","[73,9,14,79,31]","32","18","[""#FF4100"",""#38A600"",""#6F9CA4"",""#005BA8"",""#DA7100""]","[""red"",""green"",""grey"",""blue"",""orange""]","learning","[0,0.3333333333333333,0.3333333333333333,0,0.3333333333333333]"
"2670.000000000029","","","wizard-gem-trial","24","152747","0.0-24.0","wizard_gems","","","","2019-08-14T19:00:36Z","2019-08-14T19:10:11Z","575244","216.165.95.137","2019-08-10","5jf57tmn5kvcef1","false","0220777471-exa-3020622231-mple","4671","[49,94,64,74,48]","74","68.66666666666666","[""#FF4100"",""#38A600"",""#6F9CA4"",""#005BA8"",""#DA7100""]","[""red"",""green"",""grey"",""blue"",""orange""]","learning","[0,0.3333333333333333,0.3333333333333333,0,0.3333333333333333]"
"3016","","","wizard-gem-trial","25","158267","0.0-25.0","wizard_gems","","","","2019-08-14T19:00:36Z","2019-08-14T19:10:11Z","575244","216.165.95.137","2019-08-10","5jf57tmn5kvcef1","false","0220777471-exa-3020622231-mple","5017","[61,60,21,80,88]","37","56.33333333333333","[""#FF4100"",""#38A600"",""#6F9CA4"",""#005BA8"",""#DA7100""]","[""red"",""green"",""grey"",""blue"",""orange""]","learning","[0,0.3333333333333333,0.3333333333333333,0,0.3333333333333333]"
"2246","","","wizard-gem-trial","26","163018","0.0-26.0","wizard_gems","","","","2019-08-14T19:00:36Z","2019-08-14T19:10:11Z","575244","216.165.95.137","2019-08-10","5jf57tmn5kvcef1","false","0220777471-exa-3020622231-mple","4247","[74,13,88,7,30]","26","43.666666666666664","[""#FF4100"",""#38A600"",""#6F9CA4"",""#005BA8"",""#DA7100""]","[""red"",""green"",""grey"",""blue"",""orange""]","learning","[0,0.3333333333333333,0.3333333333333333,0,0.3333333333333333]"
"2360","","","wizard-gem-trial","27","167882","0.0-27.0","wizard_gems","","","","2019-08-14T19:00:36Z","2019-08-14T19:10:11Z","575244","216.165.95.137","2019-08-10","5jf57tmn5kvcef1","false","0220777471-exa-3020622231-mple","4361","[52,65,2,41,84]","64","50.33333333333333","[""#FF4100"",""#38A600"",""#6F9CA4"",""#005BA8"",""#DA7100""]","[""red"",""green"",""grey"",""blue"",""orange""]","learning","[0,0.3333333333333333,0.3333333333333333,0,0.3333333333333333]"
"4250","","","wizard-gem-trial","28","174637","0.0-28.0","wizard_gems","","","","2019-08-14T19:00:36Z","2019-08-14T19:10:11Z","575244","216.165.95.137","2019-08-10","5jf57tmn5kvcef1","false","0220777471-exa-3020622231-mple","6252","[23,7,90,13,55]","69","50.66666666666667","[""#FF4100"",""#38A600"",""#6F9CA4"",""#005BA8"",""#DA7100""]","[""red"",""green"",""grey"",""blue"",""orange""]","learning","[0,0.3333333333333333,0.3333333333333333,0,0.3333333333333333]"
"2675.999999999971","","","wizard-gem-trial","29","179817","0.0-29.0","wizard_gems","","","","2019-08-14T19:00:36Z","2019-08-14T19:10:11Z","575244","216.165.95.137","2019-08-10","5jf57tmn5kvcef1","false","0220777471-exa-3020622231-mple","4676.999999999971","[81,80,87,85,72]","87","79.66666666666666","[""#FF4100"",""#38A600"",""#6F9CA4"",""#005BA8"",""#DA7100""]","[""red"",""green"",""grey"",""blue"",""orange""]","learning","[0,0.3333333333333333,0.3333333333333333,0,0.3333333333333333]"
"2441","","","wizard-gem-trial","30","184764","0.0-30.0","wizard_gems","","","","2019-08-14T19:00:36Z","2019-08-14T19:10:11Z","575244","216.165.95.137","2019-08-10","5jf57tmn5kvcef1","false","0220777471-exa-3020622231-mple","4443","[66,34,22,44,67]","51","41","[""#FF4100"",""#38A600"",""#6F9CA4"",""#005BA8"",""#DA7100""]","[""red"",""green"",""grey"",""blue"",""orange""]","learning","[0,0.3333333333333333,0.3333333333333333,0,0.3333333333333333]"
"15729","","","wizard-gem-trial","31","203000","0.0-31.0","wizard_gems","","","","2019-08-14T19:00:36Z","2019-08-14T19:10:11Z","575244","216.165.95.137","2019-08-10","5jf57tmn5kvcef1","false","0220777471-exa-3020622231-mple","17730","[90,49,34,46,80]","63","54.33333333333333","[""#FF4100"",""#38A600"",""#6F9CA4"",""#005BA8"",""#DA7100""]","[""red"",""green"",""grey"",""blue"",""orange""]","learning","[0,0.3333333333333333,0.3333333333333333,0,0.3333333333333333]"
"2115","","","wizard-gem-trial","32","207619","0.0-32.0","wizard_gems","","","","2019-08-14T19:00:36Z","2019-08-14T19:10:11Z","575244","216.165.95.137","2019-08-10","5jf57tmn5kvcef1","false","0220777471-exa-3020622231-mple","4116","[83,37,48,87,80]","77","55","[""#FF4100"",""#38A600"",""#6F9CA4"",""#005BA8"",""#DA7100""]","[""red"",""green"",""grey"",""blue"",""orange""]","learning","[0,0.3333333333333333,0.3333333333333333,0,0.3333333333333333]"
"3730","","","wizard-gem-trial","33","213854","0.0-33.0","wizard_gems","","","","2019-08-14T19:00:36Z","2019-08-14T19:10:11Z","575244","216.165.95.137","2019-08-10","5jf57tmn5kvcef1","false","0220777471-exa-3020622231-mple","5732","[65,45,33,85,8]","41","28.666666666666668","[""#FF4100"",""#38A600"",""#6F9CA4"",""#005BA8"",""#DA7100""]","[""red"",""green"",""grey"",""blue"",""orange""]","learning","[0,0.3333333333333333,0.3333333333333333,0,0.3333333333333333]"
"1422","","","wizard-gem-trial","34","217781","0.0-34.0","wizard_gems","","","","2019-08-14T19:00:36Z","2019-08-14T19:10:11Z","575244","216.165.95.137","2019-08-10","5jf57tmn5kvcef1","false","0220777471-exa-3020622231-mple","3423","[58,66,13,10,38]","19","39","[""#FF4100"",""#38A600"",""#6F9CA4"",""#005BA8"",""#DA7100""]","[""red"",""green"",""grey"",""blue"",""orange""]","learning","[0,0.3333333333333333,0.3333333333333333,0,0.3333333333333333]"
"2634.999999999971","","","wizard-gem-trial","35","222921","0.0-35.0","wizard_gems","","","","2019-08-14T19:00:36Z","2019-08-14T19:10:11Z","575244","216.165.95.137","2019-08-10","5jf57tmn5kvcef1","false","0220777471-exa-3020622231-mple","4636.999999999971","[17,51,89,35,58]","57","66","[""#FF4100"",""#38A600"",""#6F9CA4"",""#005BA8"",""#DA7100""]","[""red"",""green"",""grey"",""blue"",""orange""]","learning","[0,0.3333333333333333,0.3333333333333333,0,0.3333333333333333]"
"2013","","","wizard-gem-trial","36","227436","0.0-36.0","wizard_gems","","","","2019-08-14T19:00:36Z","2019-08-14T19:10:11Z","575244","216.165.95.137","2019-08-10","5jf57tmn5kvcef1","false","0220777471-exa-3020622231-mple","4013","[38,70,29,94,54]","54","51","[""#FF4100"",""#38A600"",""#6F9CA4"",""#005BA8"",""#DA7100""]","[""red"",""green"",""grey"",""blue"",""orange""]","learning","[0,0.3333333333333333,0.3333333333333333,0,0.3333333333333333]"
"2247.999999999971","","","wizard-gem-trial","37","232189","0.0-37.0","wizard_gems","","","","2019-08-14T19:00:36Z","2019-08-14T19:10:11Z","575244","216.165.95.137","2019-08-10","5jf57tmn5kvcef1","false","0220777471-exa-3020622231-mple","4250.999999999971","[63,97,23,50,3]","55","40.99999999999999","[""#FF4100"",""#38A600"",""#6F9CA4"",""#005BA8"",""#DA7100""]","[""red"",""green"",""grey"",""blue"",""orange""]","learning","[0,0.3333333333333333,0.3333333333333333,0,0.3333333333333333]"
"2917","","","wizard-gem-trial","38","237612","0.0-38.0","wizard_gems","","","","2019-08-14T19:00:36Z","2019-08-14T19:10:11Z","575244","216.165.95.137","2019-08-10","5jf57tmn5kvcef1","false","0220777471-exa-3020622231-mple","4919.000000000029","[59,53,8,27,31]","45","30.666666666666664","[""#FF4100"",""#38A600"",""#6F9CA4"",""#005BA8"",""#DA7100""]","[""red"",""green"",""grey"",""blue"",""orange""]","learning","[0,0.3333333333333333,0.3333333333333333,0,0.3333333333333333]"
"2530","","","wizard-gem-trial","39","242647","0.0-39.0","wizard_gems","","","","2019-08-14T19:00:36Z","2019-08-14T19:10:11Z","575244","216.165.95.137","2019-08-10","5jf57tmn5kvcef1","false","0220777471-exa-3020622231-mple","4532","[33,49,32,98,66]","40","49","[""#FF4100"",""#38A600"",""#6F9CA4"",""#005BA8"",""#DA7100""]","[""red"",""green"",""grey"",""blue"",""orange""]","learning","[0,0.3333333333333333,0.3333333333333333,0,0.3333333333333333]"
"1732","","","wizard-gem-trial","40","246887","0.0-40.0","wizard_gems","","","","2019-08-14T19:00:36Z","2019-08-14T19:10:11Z","575244","216.165.95.137","2019-08-10","5jf57tmn5kvcef1","false","0220777471-exa-3020622231-mple","3733.000000000029","[44,90,16,80,92]","55","66","[""#FF4100"",""#38A600"",""#6F9CA4"",""#005BA8"",""#DA7100""]","[""red"",""green"",""grey"",""blue"",""orange""]","learning","[0,0.3333333333333333,0.3333333333333333,0,0.3333333333333333]"
"5909","","","wizard-gem-trial","41","255301","0.0-41.0","wizard_gems","","","","2019-08-14T19:00:36Z","2019-08-14T19:10:11Z","575244","216.165.95.137","2019-08-10","5jf57tmn5kvcef1","false","0220777471-exa-3020622231-mple","7911","[62,15,77,35,79]","56","57","[""#FF4100"",""#38A600"",""#6F9CA4"",""#005BA8"",""#DA7100""]","[""red"",""green"",""grey"",""blue"",""orange""]","learning","[0,0.3333333333333333,0.3333333333333333,0,0.3333333333333333]"
"5279","","","wizard-gem-trial","42","263082","0.0-42.0","wizard_gems","","","","2019-08-14T19:00:36Z","2019-08-14T19:10:11Z","575244","216.165.95.137","2019-08-10","5jf57tmn5kvcef1","false","0220777471-exa-3020622231-mple","7278.999999999971","[47,8,75,93,71]","76","51.33333333333333","[""#FF4100"",""#38A600"",""#6F9CA4"",""#005BA8"",""#DA7100""]","[""red"",""green"",""grey"",""blue"",""orange""]","learning","[0,0.3333333333333333,0.3333333333333333,0,0.3333333333333333]"
"1806","","","wizard-gem-trial","43","267392","0.0-43.0","wizard_gems","","","","2019-08-14T19:00:36Z","2019-08-14T19:10:11Z","575244","216.165.95.137","2019-08-10","5jf57tmn5kvcef1","false","0220777471-exa-3020622231-mple","3808","[86,15,91,29,29]","60","44.99999999999999","[""#FF4100"",""#38A600"",""#6F9CA4"",""#005BA8"",""#DA7100""]","[""red"",""green"",""grey"",""blue"",""orange""]","learning","[0,0.3333333333333333,0.3333333333333333,0,0.3333333333333333]"
"2392","","","wizard-gem-trial","44","272289","0.0-44.0","wizard_gems","","","","2019-08-14T19:00:36Z","2019-08-14T19:10:11Z","575244","216.165.95.137","2019-08-10","5jf57tmn5kvcef1","false","0220777471-exa-3020622231-mple","4393.000000000058","[26,15,2,22,77]","57","31.333333333333332","[""#FF4100"",""#38A600"",""#6F9CA4"",""#005BA8"",""#DA7100""]","[""red"",""green"",""grey"",""blue"",""orange""]","learning","[0,0.3333333333333333,0.3333333333333333,0,0.3333333333333333]"
"3950","","","wizard-gem-trial","45","278743","0.0-45.0","wizard_gems","","","","2019-08-14T19:00:36Z","2019-08-14T19:10:11Z","575244","216.165.95.137","2019-08-10","5jf57tmn5kvcef1","false","0220777471-exa-3020622231-mple","5951","[1,25,94,94,51]","40","56.666666666666664","[""#FF4100"",""#38A600"",""#6F9CA4"",""#005BA8"",""#DA7100""]","[""red"",""green"",""grey"",""blue"",""orange""]","learning","[0,0.3333333333333333,0.3333333333333333,0,0.3333333333333333]"
"5480","","","wizard-gem-trial","46","286732","0.0-46.0","wizard_gems","","","","2019-08-14T19:00:36Z","2019-08-14T19:10:11Z","575244","216.165.95.137","2019-08-10","5jf57tmn5kvcef1","false","0220777471-exa-3020622231-mple","7482","[68,27,14,29,47]","30","29.333333333333332","[""#FF4100"",""#38A600"",""#6F9CA4"",""#005BA8"",""#DA7100""]","[""red"",""green"",""grey"",""blue"",""orange""]","learning","[0,0.3333333333333333,0.3333333333333333,0,0.3333333333333333]"
"3346","","","wizard-gem-trial","47","292584","0.0-47.0","wizard_gems","","","","2019-08-14T19:00:36Z","2019-08-14T19:10:11Z","575244","216.165.95.137","2019-08-10","5jf57tmn5kvcef1","false","0220777471-exa-3020622231-mple","5347","[74,34,17,32,11]","23","20.666666666666668","[""#FF4100"",""#38A600"",""#6F9CA4"",""#005BA8"",""#DA7100""]","[""red"",""green"",""grey"",""blue"",""orange""]","learning","[0,0.3333333333333333,0.3333333333333333,0,0.3333333333333333]"
"2665.000000000058","","","wizard-gem-trial","48","297756","0.0-48.0","wizard_gems","","","","2019-08-14T19:00:36Z","2019-08-14T19:10:11Z","575244","216.165.95.137","2019-08-10","5jf57tmn5kvcef1","false","0220777471-exa-3020622231-mple","4667","[73,0,68,14,78]","42","48.666666666666664","[""#FF4100"",""#38A600"",""#6F9CA4"",""#005BA8"",""#DA7100""]","[""red"",""green"",""grey"",""blue"",""orange""]","learning","[0,0.3333333333333333,0.3333333333333333,0,0.3333333333333333]"
"3518","","","wizard-gem-trial","49","303778","0.0-49.0","wizard_gems","","","","2019-08-14T19:00:36Z","2019-08-14T19:10:11Z","575244","216.165.95.137","2019-08-10","5jf57tmn5kvcef1","false","0220777471-exa-3020622231-mple","5520","[53,76,8,97,71]","55","51.666666666666664","[""#FF4100"",""#38A600"",""#6F9CA4"",""#005BA8"",""#DA7100""]","[""red"",""green"",""grey"",""blue"",""orange""]","learning","[0,0.3333333333333333,0.3333333333333333,0,0.3333333333333333]"
"3543","","","wizard-gem-trial","50","309826","0.0-50.0","wizard_gems","","","","2019-08-14T19:00:36Z","2019-08-14T19:10:11Z","575244","216.165.95.137","2019-08-10","5jf57tmn5kvcef1","false","0220777471-exa-3020622231-mple","5544.000000000058","[11,72,72,63,40]","64","61.33333333333333","[""#FF4100"",""#38A600"",""#6F9CA4"",""#005BA8"",""#DA7100""]","[""red"",""green"",""grey"",""blue"",""orange""]","learning","[0,0.3333333333333333,0.3333333333333333,0,0.3333333333333333]"
"3139","","","wizard-gem-trial","51","315469","0.0-51.0","wizard_gems","","","","2019-08-14T19:00:36Z","2019-08-14T19:10:11Z","575244","216.165.95.137","2019-08-10","5jf57tmn5kvcef1","false","0220777471-exa-3020622231-mple","5141","[69,49,0,14,6]","18","18.333333333333332","[""#FF4100"",""#38A600"",""#6F9CA4"",""#005BA8"",""#DA7100""]","[""red"",""green"",""grey"",""blue"",""orange""]","learning","[0,0.3333333333333333,0.3333333333333333,0,0.3333333333333333]"
"4627","","","wizard-gem-trial","52","322601","0.0-52.0","wizard_gems","","","","2019-08-14T19:00:36Z","2019-08-14T19:10:11Z","575244","216.165.95.137","2019-08-10","5jf57tmn5kvcef1","false","0220777471-exa-3020622231-mple","6628.000000000058","[79,81,17,92,98]","50","65.33333333333333","[""#FF4100"",""#38A600"",""#6F9CA4"",""#005BA8"",""#DA7100""]","[""red"",""green"",""grey"",""blue"",""orange""]","learning","[0,0.3333333333333333,0.3333333333333333,0,0.3333333333333333]"
"2332","","","wizard-gem-trial","53","327440","0.0-53.0","wizard_gems","","","","2019-08-14T19:00:36Z","2019-08-14T19:10:11Z","575244","216.165.95.137","2019-08-10","5jf57tmn5kvcef1","false","0220777471-exa-3020622231-mple","4333.000000000058","[3,67,6,86,93]","63","55.33333333333333","[""#FF4100"",""#38A600"",""#6F9CA4"",""#005BA8"",""#DA7100""]","[""red"",""green"",""grey"",""blue"",""orange""]","learning","[0,0.3333333333333333,0.3333333333333333,0,0.3333333333333333]"
"3187.000000000058","","","wizard-gem-trial","54","333131","0.0-54.0","wizard_gems","","","","2019-08-14T19:00:36Z","2019-08-14T19:10:11Z","575244","216.165.95.137","2019-08-10","5jf57tmn5kvcef1","false","0220777471-exa-3020622231-mple","5188","[9,87,6,68,16]","31","36.333333333333336","[""#FF4100"",""#38A600"",""#6F9CA4"",""#005BA8"",""#DA7100""]","[""red"",""green"",""grey"",""blue"",""orange""]","learning","[0,0.3333333333333333,0.3333333333333333,0,0.3333333333333333]"
"1548","","","wizard-gem-trial","55","337184","0.0-55.0","wizard_gems","","","","2019-08-14T19:00:36Z","2019-08-14T19:10:11Z","575244","216.165.95.137","2019-08-10","5jf57tmn5kvcef1","false","0220777471-exa-3020622231-mple","3550","[54,21,26,18,57]","32","34.666666666666664","[""#FF4100"",""#38A600"",""#6F9CA4"",""#005BA8"",""#DA7100""]","[""red"",""green"",""grey"",""blue"",""orange""]","learning","[0,0.3333333333333333,0.3333333333333333,0,0.3333333333333333]"
"2010","","","wizard-gem-trial","56","341700","0.0-56.0","wizard_gems","","","","2019-08-14T19:00:36Z","2019-08-14T19:10:11Z","575244","216.165.95.137","2019-08-10","5jf57tmn5kvcef1","false","0220777471-exa-3020622231-mple","4012","[22,45,85,59,50]","45","59.99999999999999","[""#FF4100"",""#38A600"",""#6F9CA4"",""#005BA8"",""#DA7100""]","[""red"",""green"",""grey"",""blue"",""orange""]","learning","[0,0.3333333333333333,0.3333333333333333,0,0.3333333333333333]"
"1598","","","wizard-gem-trial","57","345803","0.0-57.0","wizard_gems","","","","2019-08-14T19:00:36Z","2019-08-14T19:10:11Z","575244","216.165.95.137","2019-08-10","5jf57tmn5kvcef1","false","0220777471-exa-3020622231-mple","3599.000000000058","[99,65,47,39,61]","46","57.66666666666666","[""#FF4100"",""#38A600"",""#6F9CA4"",""#005BA8"",""#DA7100""]","[""red"",""green"",""grey"",""blue"",""orange""]","learning","[0,0.3333333333333333,0.3333333333333333,0,0.3333333333333333]"
"3162","","","wizard-gem-trial","58","351469","0.0-58.0","wizard_gems","","","","2019-08-14T19:00:36Z","2019-08-14T19:10:11Z","575244","216.165.95.137","2019-08-10","5jf57tmn5kvcef1","false","0220777471-exa-3020622231-mple","5163.000000000058","[28,14,28,20,22]","27","21.333333333333332","[""#FF4100"",""#38A600"",""#6F9CA4"",""#005BA8"",""#DA7100""]","[""red"",""green"",""grey"",""blue"",""orange""]","learning","[0,0.3333333333333333,0.3333333333333333,0,0.3333333333333333]"
"2521","","","wizard-gem-trial","59","356496","0.0-59.0","wizard_gems","","","","2019-08-14T19:00:36Z","2019-08-14T19:10:11Z","575244","216.165.95.137","2019-08-10","5jf57tmn5kvcef1","false","0220777471-exa-3020622231-mple","4522","[96,58,28,54,67]","51","51","[""#FF4100"",""#38A600"",""#6F9CA4"",""#005BA8"",""#DA7100""]","[""red"",""green"",""grey"",""blue"",""orange""]","learning","[0,0.3333333333333333,0.3333333333333333,0,0.3333333333333333]"
"2538","","","wizard-gem-trial","60","361539","0.0-60.0","wizard_gems","","","","2019-08-14T19:00:36Z","2019-08-14T19:10:11Z","575244","216.165.95.137","2019-08-10","5jf57tmn5kvcef1","false","0220777471-exa-3020622231-mple","4539","[83,75,56,27,55]","58","62","[""#FF4100"",""#38A600"",""#6F9CA4"",""#005BA8"",""#DA7100""]","[""red"",""green"",""grey"",""blue"",""orange""]","learning","[0,0.3333333333333333,0.3333333333333333,0,0.3333333333333333]"
"1840","","","wizard-gem-trial","61","365884","0.0-61.0","wizard_gems","","","","2019-08-14T19:00:36Z","2019-08-14T19:10:11Z","575244","216.165.95.137","2019-08-10","5jf57tmn5kvcef1","false","0220777471-exa-3020622231-mple","3841","[57,32,32,77,66]","42","43.33333333333333","[""#FF4100"",""#38A600"",""#6F9CA4"",""#005BA8"",""#DA7100""]","[""red"",""green"",""grey"",""blue"",""orange""]","learning","[0,0.3333333333333333,0.3333333333333333,0,0.3333333333333333]"
"1889","","","wizard-gem-trial","62","370278","0.0-62.0","wizard_gems","","","","2019-08-14T19:00:36Z","2019-08-14T19:10:11Z","575244","216.165.95.137","2019-08-10","5jf57tmn5kvcef1","false","0220777471-exa-3020622231-mple","3890","[90,83,39,88,20]","52","47.33333333333333","[""#FF4100"",""#38A600"",""#6F9CA4"",""#005BA8"",""#DA7100""]","[""red"",""green"",""grey"",""blue"",""orange""]","learning","[0,0.3333333333333333,0.3333333333333333,0,0.3333333333333333]"
"1944","","","wizard-gem-trial","63","374727","0.0-63.0","wizard_gems","","","","2019-08-14T19:00:36Z","2019-08-14T19:10:11Z","575244","216.165.95.137","2019-08-10","5jf57tmn5kvcef1","false","0220777471-exa-3020622231-mple","3945.000000000058","[49,33,73,61,43]","48","49.66666666666666","[""#FF4100"",""#38A600"",""#6F9CA4"",""#005BA8"",""#DA7100""]","[""red"",""green"",""grey"",""blue"",""orange""]","learning","[0,0.3333333333333333,0.3333333333333333,0,0.3333333333333333]"
"2829","","","wizard-gem-trial","64","380062","0.0-64.0","wizard_gems","","","","2019-08-14T19:00:36Z","2019-08-14T19:10:11Z","575244","216.165.95.137","2019-08-10","5jf57tmn5kvcef1","false","0220777471-exa-3020622231-mple","4831","[27,20,59,95,28]","38","35.66666666666666","[""#FF4100"",""#38A600"",""#6F9CA4"",""#005BA8"",""#DA7100""]","[""red"",""green"",""grey"",""blue"",""orange""]","learning","[0,0.3333333333333333,0.3333333333333333,0,0.3333333333333333]"
"2308","","","wizard-gem-trial","65","384877","0.0-65.0","wizard_gems","","","","2019-08-14T19:00:36Z","2019-08-14T19:10:11Z","575244","216.165.95.137","2019-08-10","5jf57tmn5kvcef1","false","0220777471-exa-3020622231-mple","4309.000000000058","[95,30,96,12,82]","56","69.33333333333333","[""#FF4100"",""#38A600"",""#6F9CA4"",""#005BA8"",""#DA7100""]","[""red"",""green"",""grey"",""blue"",""orange""]","learning","[0,0.3333333333333333,0.3333333333333333,0,0.3333333333333333]"
"2814","","","wizard-gem-trial","66","390196","0.0-66.0","wizard_gems","","","","2019-08-14T19:00:36Z","2019-08-14T19:10:11Z","575244","216.165.95.137","2019-08-10","5jf57tmn5kvcef1","false","0220777471-exa-3020622231-mple","4816","[17,67,100,25,54]","58","73.66666666666666","[""#FF4100"",""#38A600"",""#6F9CA4"",""#005BA8"",""#DA7100""]","[""red"",""green"",""grey"",""blue"",""orange""]","learning","[0,0.3333333333333333,0.3333333333333333,0,0.3333333333333333]"
"3275","","","wizard-gem-trial","67","395976","0.0-67.0","wizard_gems","","","","2019-08-14T19:00:36Z","2019-08-14T19:10:11Z","575244","216.165.95.137","2019-08-10","5jf57tmn5kvcef1","false","0220777471-exa-3020622231-mple","5276","[58,73,0,85,13]","30","28.666666666666664","[""#FF4100"",""#38A600"",""#6F9CA4"",""#005BA8"",""#DA7100""]","[""red"",""green"",""grey"",""blue"",""orange""]","learning","[0,0.3333333333333333,0.3333333333333333,0,0.3333333333333333]"
"2415","","","wizard-gem-trial","68","400898","0.0-68.0","wizard_gems","","","","2019-08-14T19:00:36Z","2019-08-14T19:10:11Z","575244","216.165.95.137","2019-08-10","5jf57tmn5kvcef1","false","0220777471-exa-3020622231-mple","4416","[50,23,67,1,93]","58","61","[""#FF4100"",""#38A600"",""#6F9CA4"",""#005BA8"",""#DA7100""]","[""red"",""green"",""grey"",""blue"",""orange""]","learning","[0,0.3333333333333333,0.3333333333333333,0,0.3333333333333333]"
"2164","","","wizard-gem-trial","69","405568","0.0-69.0","wizard_gems","","","","2019-08-14T19:00:36Z","2019-08-14T19:10:11Z","575244","216.165.95.137","2019-08-10","5jf57tmn5kvcef1","false","0220777471-exa-3020622231-mple","4166","[67,22,14,5,91]","55","42.33333333333333","[""#FF4100"",""#38A600"",""#6F9CA4"",""#005BA8"",""#DA7100""]","[""red"",""green"",""grey"",""blue"",""orange""]","learning","[0,0.3333333333333333,0.3333333333333333,0,0.3333333333333333]"
"2172","","","wizard-gem-trial","70","410245","0.0-70.0","wizard_gems","","","","2019-08-14T19:00:36Z","2019-08-14T19:10:11Z","575244","216.165.95.137","2019-08-10","5jf57tmn5kvcef1","false","0220777471-exa-3020622231-mple","4174.000000000058","[56,95,47,5,32]","55","57.99999999999999","[""#FF4100"",""#38A600"",""#6F9CA4"",""#005BA8"",""#DA7100""]","[""red"",""green"",""grey"",""blue"",""orange""]","learning","[0,0.3333333333333333,0.3333333333333333,0,0.3333333333333333]"
"2424","","","wizard-gem-trial","71","415174","0.0-71.0","wizard_gems","","","","2019-08-14T19:00:36Z","2019-08-14T19:10:11Z","575244","216.165.95.137","2019-08-10","5jf57tmn5kvcef1","false","0220777471-exa-3020622231-mple","4426","[22,46,55,31,65]","64","55.33333333333333","[""#FF4100"",""#38A600"",""#6F9CA4"",""#005BA8"",""#DA7100""]","[""red"",""green"",""grey"",""blue"",""orange""]","learning","[0,0.3333333333333333,0.3333333333333333,0,0.3333333333333333]"
"2870","","","wizard-gem-trial","72","420549","0.0-72.0","wizard_gems","","","","2019-08-14T19:00:36Z","2019-08-14T19:10:11Z","575244","216.165.95.137","2019-08-10","5jf57tmn5kvcef1","false","0220777471-exa-3020622231-mple","4871","[99,31,53,3,82]","58","55.33333333333333","[""#FF4100"",""#38A600"",""#6F9CA4"",""#005BA8"",""#DA7100""]","[""red"",""green"",""grey"",""blue"",""orange""]","learning","[0,0.3333333333333333,0.3333333333333333,0,0.3333333333333333]"
"4058","","","wizard-gem-trial","73","427111","0.0-73.0","wizard_gems","","","","2019-08-14T19:00:36Z","2019-08-14T19:10:11Z","575244","216.165.95.137","2019-08-10","5jf57tmn5kvcef1","false","0220777471-exa-3020622231-mple","6060","[0,80,67,56,41]","58","62.666666666666664","[""#FF4100"",""#38A600"",""#6F9CA4"",""#005BA8"",""#DA7100""]","[""red"",""green"",""grey"",""blue"",""orange""]","learning","[0,0.3333333333333333,0.3333333333333333,0,0.3333333333333333]"
"4240","","","wizard-gem-trial","74","433856","0.0-74.0","wizard_gems","","","","2019-08-14T19:00:36Z","2019-08-14T19:10:11Z","575244","216.165.95.137","2019-08-10","5jf57tmn5kvcef1","false","0220777471-exa-3020622231-mple","6242","[72,40,79,85,71]","51","63.33333333333333","[""#FF4100"",""#38A600"",""#6F9CA4"",""#005BA8"",""#DA7100""]","[""red"",""green"",""grey"",""blue"",""orange""]","learning","[0,0.3333333333333333,0.3333333333333333,0,0.3333333333333333]"
"3235","","","wizard-gem-trial","75","439597","0.0-75.0","wizard_gems","","","","2019-08-14T19:00:36Z","2019-08-14T19:10:11Z","575244","216.165.95.137","2019-08-10","5jf57tmn5kvcef1","false","0220777471-exa-3020622231-mple","5236.000000000058","[42,23,81,13,48]","47","50.666666666666664","[""#FF4100"",""#38A600"",""#6F9CA4"",""#005BA8"",""#DA7100""]","[""red"",""green"",""grey"",""blue"",""orange""]","learning","[0,0.3333333333333333,0.3333333333333333,0,0.3333333333333333]"
"2211","","","wizard-gem-trial","76","444314","0.0-76.0","wizard_gems","","","","2019-08-14T19:00:36Z","2019-08-14T19:10:11Z","575244","216.165.95.137","2019-08-10","5jf57tmn5kvcef1","false","0220777471-exa-3020622231-mple","4213","[61,19,32,86,27]","29","26","[""#FF4100"",""#38A600"",""#6F9CA4"",""#005BA8"",""#DA7100""]","[""red"",""green"",""grey"",""blue"",""orange""]","learning","[0,0.3333333333333333,0.3333333333333333,0,0.3333333333333333]"
"2255","","","wizard-gem-trial","77","449073","0.0-77.0","wizard_gems","","","","2019-08-14T19:00:36Z","2019-08-14T19:10:11Z","575244","216.165.95.137","2019-08-10","5jf57tmn5kvcef1","false","0220777471-exa-3020622231-mple","4257","[97,19,66,73,57]","47","47.33333333333333","[""#FF4100"",""#38A600"",""#6F9CA4"",""#005BA8"",""#DA7100""]","[""red"",""green"",""grey"",""blue"",""orange""]","learning","[0,0.3333333333333333,0.3333333333333333,0,0.3333333333333333]"
"2003","","","wizard-gem-trial","78","453581","0.0-78.0","wizard_gems","","","","2019-08-14T19:00:36Z","2019-08-14T19:10:11Z","575244","216.165.95.137","2019-08-10","5jf57tmn5kvcef1","false","0220777471-exa-3020622231-mple","4005","[72,30,86,41,27]","47","47.666666666666664","[""#FF4100"",""#38A600"",""#6F9CA4"",""#005BA8"",""#DA7100""]","[""red"",""green"",""grey"",""blue"",""orange""]","learning","[0,0.3333333333333333,0.3333333333333333,0,0.3333333333333333]"
"3471","","","wizard-gem-trial","79","459556","0.0-79.0","wizard_gems","","","","2019-08-14T19:00:36Z","2019-08-14T19:10:11Z","575244","216.165.95.137","2019-08-10","5jf57tmn5kvcef1","false","0220777471-exa-3020622231-mple","5472","[31,79,75,60,87]","65","80.33333333333333","[""#FF4100"",""#38A600"",""#6F9CA4"",""#005BA8"",""#DA7100""]","[""red"",""green"",""grey"",""blue"",""orange""]","learning","[0,0.3333333333333333,0.3333333333333333,0,0.3333333333333333]"
"1964","","","wizard-gem-trial","80","464025","0.0-80.0","wizard_gems","","","","2019-08-14T19:00:36Z","2019-08-14T19:10:11Z","575244","216.165.95.137","2019-08-10","5jf57tmn5kvcef1","false","0220777471-exa-3020622231-mple","3965","[66,94,34,65,63]","63","63.666666666666664","[""#FF4100"",""#38A600"",""#6F9CA4"",""#005BA8"",""#DA7100""]","[""red"",""green"",""grey"",""blue"",""orange""]","learning","[0,0.3333333333333333,0.3333333333333333,0,0.3333333333333333]"
"2471","","","wizard-gem-trial","81","469002","0.0-81.0","wizard_gems","","","","2019-08-14T19:00:36Z","2019-08-14T19:10:11Z","575244","216.165.95.137","2019-08-10","5jf57tmn5kvcef1","false","0220777471-exa-3020622231-mple","4472","[53,80,16,41,62]","54","52.66666666666666","[""#FF4100"",""#38A600"",""#6F9CA4"",""#005BA8"",""#DA7100""]","[""red"",""green"",""grey"",""blue"",""orange""]","learning","[0,0.3333333333333333,0.3333333333333333,0,0.3333333333333333]"
"2150","","","wizard-gem-trial","82","473656","0.0-82.0","wizard_gems","","","","2019-08-14T19:00:36Z","2019-08-14T19:10:11Z","575244","216.165.95.137","2019-08-10","5jf57tmn5kvcef1","false","0220777471-exa-3020622231-mple","4151","[42,83,66,52,34]","51","61","[""#FF4100"",""#38A600"",""#6F9CA4"",""#005BA8"",""#DA7100""]","[""red"",""green"",""grey"",""blue"",""orange""]","learning","[0,0.3333333333333333,0.3333333333333333,0,0.3333333333333333]"
"2581","","","wizard-gem-trial","83","478741","0.0-83.0","wizard_gems","","","","2019-08-14T19:00:36Z","2019-08-14T19:10:11Z","575244","216.165.95.137","2019-08-10","5jf57tmn5kvcef1","false","0220777471-exa-3020622231-mple","4581","[6,6,5,64,15]","12","8.666666666666666","[""#FF4100"",""#38A600"",""#6F9CA4"",""#005BA8"",""#DA7100""]","[""red"",""green"",""grey"",""blue"",""orange""]","learning","[0,0.3333333333333333,0.3333333333333333,0,0.3333333333333333]"
"3147","","","wizard-gem-trial","84","484393","0.0-84.0","wizard_gems","","","","2019-08-14T19:00:36Z","2019-08-14T19:10:11Z","575244","216.165.95.137","2019-08-10","5jf57tmn5kvcef1","false","0220777471-exa-3020622231-mple","5148","[22,89,72,97,98]","84","86.33333333333333","[""#FF4100"",""#38A600"",""#6F9CA4"",""#005BA8"",""#DA7100""]","[""red"",""green"",""grey"",""blue"",""orange""]","learning","[0,0.3333333333333333,0.3333333333333333,0,0.3333333333333333]"
"3651","","","wizard-gem-trial","85","490547","0.0-85.0","wizard_gems","","","","2019-08-14T19:00:36Z","2019-08-14T19:10:11Z","575244","216.165.95.137","2019-08-10","5jf57tmn5kvcef1","false","0220777471-exa-3020622231-mple","5652","[73,44,92,83,17]","50","50.99999999999999","[""#FF4100"",""#38A600"",""#6F9CA4"",""#005BA8"",""#DA7100""]","[""red"",""green"",""grey"",""blue"",""orange""]","learning","[0,0.3333333333333333,0.3333333333333333,0,0.3333333333333333]"
"4074","","","wizard-gem-trial","86","497128","0.0-86.0","wizard_gems","","","","2019-08-14T19:00:36Z","2019-08-14T19:10:11Z","575244","216.165.95.137","2019-08-10","5jf57tmn5kvcef1","false","0220777471-exa-3020622231-mple","6074","[92,29,74,1,96]","66","66.33333333333333","[""#FF4100"",""#38A600"",""#6F9CA4"",""#005BA8"",""#DA7100""]","[""red"",""green"",""grey"",""blue"",""orange""]","learning","[0,0.3333333333333333,0.3333333333333333,0,0.3333333333333333]"
"4353.000000000058","","","wizard-gem-trial","87","503987","0.0-87.0","wizard_gems","","","","2019-08-14T19:00:36Z","2019-08-14T19:10:11Z","575244","216.165.95.137","2019-08-10","5jf57tmn5kvcef1","false","0220777471-exa-3020622231-mple","6354","[9,93,41,13,50]","58","61.33333333333333","[""#FF4100"",""#38A600"",""#6F9CA4"",""#005BA8"",""#DA7100""]","[""red"",""green"",""grey"",""blue"",""orange""]","learning","[0,0.3333333333333333,0.3333333333333333,0,0.3333333333333333]"
"4587.000000000058","","","wizard-gem-trial","88","511079","0.0-88.0","wizard_gems","","","","2019-08-14T19:00:36Z","2019-08-14T19:10:11Z","575244","216.165.95.137","2019-08-10","5jf57tmn5kvcef1","false","0220777471-exa-3020622231-mple","6588","[31,46,3,32,37]","31","28.666666666666664","[""#FF4100"",""#38A600"",""#6F9CA4"",""#005BA8"",""#DA7100""]","[""red"",""green"",""grey"",""blue"",""orange""]","learning","[0,0.3333333333333333,0.3333333333333333,0,0.3333333333333333]"
"2117","","","wizard-gem-trial","89","515700","0.0-89.0","wizard_gems","","","","2019-08-14T19:00:36Z","2019-08-14T19:10:11Z","575244","216.165.95.137","2019-08-10","5jf57tmn5kvcef1","false","0220777471-exa-3020622231-mple","4117.999999999942","[90,10,31,1,40]","34","26.999999999999996","[""#FF4100"",""#38A600"",""#6F9CA4"",""#005BA8"",""#DA7100""]","[""red"",""green"",""grey"",""blue"",""orange""]","learning","[0,0.3333333333333333,0.3333333333333333,0,0.3333333333333333]"
"2263.000000000058","","","wizard-gem-trial","90","520468","0.0-90.0","wizard_gems","","","","2019-08-14T19:00:36Z","2019-08-14T19:10:11Z","575244","216.165.95.137","2019-08-10","5jf57tmn5kvcef1","false","0220777471-exa-3020622231-mple","4265.000000000116","[48,26,84,43,42]","33","50.666666666666664","[""#FF4100"",""#38A600"",""#6F9CA4"",""#005BA8"",""#DA7100""]","[""red"",""green"",""grey"",""blue"",""orange""]","learning","[0,0.3333333333333333,0.3333333333333333,0,0.3333333333333333]"
"3231","","","wizard-gem-trial","91","526204","0.0-91.0","wizard_gems","","","","2019-08-14T19:00:36Z","2019-08-14T19:10:11Z","575244","216.165.95.137","2019-08-10","5jf57tmn5kvcef1","false","0220777471-exa-3020622231-mple","5233","[79,67,20,17,100]","74","62.33333333333333","[""#FF4100"",""#38A600"",""#6F9CA4"",""#005BA8"",""#DA7100""]","[""red"",""green"",""grey"",""blue"",""orange""]","learning","[0,0.3333333333333333,0.3333333333333333,0,0.3333333333333333]"
"3487","","","wizard-gem-trial","92","532194","0.0-92.0","wizard_gems","","","","2019-08-14T19:00:36Z","2019-08-14T19:10:11Z","575244","216.165.95.137","2019-08-10","5jf57tmn5kvcef1","false","0220777471-exa-3020622231-mple","5488","[53,25,56,23,69]","59","50","[""#FF4100"",""#38A600"",""#6F9CA4"",""#005BA8"",""#DA7100""]","[""red"",""green"",""grey"",""blue"",""orange""]","learning","[0,0.3333333333333333,0.3333333333333333,0,0.3333333333333333]"
"5564.000000000116","","","wizard-gem-trial","93","540265","0.0-93.0","wizard_gems","","","","2019-08-14T19:00:36Z","2019-08-14T19:10:11Z","575244","216.165.95.137","2019-08-10","5jf57tmn5kvcef1","false","0220777471-exa-3020622231-mple","7567","[33,43,66,86,86]","65","65","[""#FF4100"",""#38A600"",""#6F9CA4"",""#005BA8"",""#DA7100""]","[""red"",""green"",""grey"",""blue"",""orange""]","learning","[0,0.3333333333333333,0.3333333333333333,0,0.3333333333333333]"
"2422.0000000001164","","","wizard-gem-trial","94","545192","0.0-94.0","wizard_gems","","","","2019-08-14T19:00:36Z","2019-08-14T19:10:11Z","575244","216.165.95.137","2019-08-10","5jf57tmn5kvcef1","false","0220777471-exa-3020622231-mple","4424","[93,4,12,54,50]","35","21.999999999999996","[""#FF4100"",""#38A600"",""#6F9CA4"",""#005BA8"",""#DA7100""]","[""red"",""green"",""grey"",""blue"",""orange""]","learning","[0,0.3333333333333333,0.3333333333333333,0,0.3333333333333333]"
"1932","","","wizard-gem-trial","95","549629","0.0-95.0","wizard_gems","","","","2019-08-14T19:00:36Z","2019-08-14T19:10:11Z","575244","216.165.95.137","2019-08-10","5jf57tmn5kvcef1","false","0220777471-exa-3020622231-mple","3934","[47,27,89,13,30]","67","48.666666666666664","[""#FF4100"",""#38A600"",""#6F9CA4"",""#005BA8"",""#DA7100""]","[""red"",""green"",""grey"",""blue"",""orange""]","learning","[0,0.3333333333333333,0.3333333333333333,0,0.3333333333333333]"
"1585","","","wizard-gem-trial","96","553719","0.0-96.0","wizard_gems","","","","2019-08-14T19:00:36Z","2019-08-14T19:10:11Z","575244","216.165.95.137","2019-08-10","5jf57tmn5kvcef1","false","0220777471-exa-3020622231-mple","3587","[65,89,83,51,47]","66","73","[""#FF4100"",""#38A600"",""#6F9CA4"",""#005BA8"",""#DA7100""]","[""red"",""green"",""grey"",""blue"",""orange""]","learning","[0,0.3333333333333333,0.3333333333333333,0,0.3333333333333333]"
"3065","","","wizard-gem-trial","97","559288","0.0-97.0","wizard_gems","","","","2019-08-14T19:00:36Z","2019-08-14T19:10:11Z","575244","216.165.95.137","2019-08-10","5jf57tmn5kvcef1","false","0220777471-exa-3020622231-mple","5065","[29,10,98,27,41]","68","49.666666666666664","[""#FF4100"",""#38A600"",""#6F9CA4"",""#005BA8"",""#DA7100""]","[""red"",""green"",""grey"",""blue"",""orange""]","learning","[0,0.3333333333333333,0.3333333333333333,0,0.3333333333333333]"
"2380.9999999998836","","","wizard-gem-trial","98","564174","0.0-98.0","wizard_gems","","","","2019-08-14T19:00:36Z","2019-08-14T19:10:11Z","575244","216.165.95.137","2019-08-10","5jf57tmn5kvcef1","false","0220777471-exa-3020622231-mple","4381.999999999884","[56,26,24,50,78]","52","42.666666666666664","[""#FF4100"",""#38A600"",""#6F9CA4"",""#005BA8"",""#DA7100""]","[""red"",""green"",""grey"",""blue"",""orange""]","learning","[0,0.3333333333333333,0.3333333333333333,0,0.3333333333333333]"
"3323","","","wizard-gem-trial","99","570001","0.0-99.0","wizard_gems","","","","2019-08-14T19:00:36Z","2019-08-14T19:10:11Z","575244","216.165.95.137","2019-08-10","5jf57tmn5kvcef1","false","0220777471-exa-3020622231-mple","5323","[7,95,27,50,52]","45","58","[""#FF4100"",""#38A600"",""#6F9CA4"",""#005BA8"",""#DA7100""]","[""red"",""green"",""grey"",""blue"",""orange""]","learning","[0,0.3333333333333333,0.3333333333333333,0,0.3333333333333333]"
"1989.0000000001164","","","wizard-gem-trial","100","574495","0.0-100.0","wizard_gems","","","","2019-08-14T19:00:36Z","2019-08-14T19:10:11Z","575244","216.165.95.137","2019-08-10","5jf57tmn5kvcef1","false","0220777471-exa-3020622231-mple","3990","[42,92,93,64,14]","53","66.33333333333333","[""#FF4100"",""#38A600"",""#6F9CA4"",""#005BA8"",""#DA7100""]","[""red"",""green"",""grey"",""blue"",""orange""]","learning","[0,0.3333333333333333,0.3333333333333333,0,0.3333333333333333]"
