"rt","url","experiment_phase","trial_type","trial_index","time_elapsed","internal_node_id","experiment_name","workerId","assignmentId","hitId","experiment_start_time","experiment_end_time","total_time","ip_address","version_date","anon_id","demo_mode","completion_code","page_rt","gem_values","response","correct_answer","gem_colors","gem_color_names","phase","gem_weights"
"84405","src/html/instructions.html","instructions","render-mustache-template","0","84613","0.0-0.0","wizard_gems","","","","2019-08-14T06:49:10Z","2019-08-14T07:01:58Z","767427","147.125.37.58","2019-08-10","9fzhnxu5uzmnbuf","false","0893825296-exa-8845083689-mple","","","","","","","",""
"20298.024999909103","","","wizard-gem-trial","1","107425","0.0-1.0","wizard_gems","","","","2019-08-14T06:49:10Z","2019-08-14T07:01:58Z","767427","147.125.37.58","2019-08-10","9fzhnxu5uzmnbuf","false","0893825296-exa-8845083689-mple","22300.479999976233","[32,17,58,27,55]","54","48.33333333333333","[""#6F9CA4"",""#005BA8"",""#DA7100"",""#FF4100"",""#38A600""]","[""grey"",""blue"",""orange"",""red"",""green""]","learning","[0.3333333333333333,0,0.3333333333333333,0,0.3333333333333333]"
"7667.495000059716","","","wizard-gem-trial","2","117603","0.0-2.0","wizard_gems","","","","2019-08-14T06:49:10Z","2019-08-14T07:01:58Z","767427","147.125.37.58","2019-08-10","9fzhnxu5uzmnbuf","false","0893825296-exa-8845083689-mple","9672.390000079758","[24,71,14,44,3]","50","13.666666666666666","[""#6F9CA4"",""#005BA8"",""#DA7100"",""#FF4100"",""#38A600""]","[""grey"",""blue"",""orange"",""red"",""green""]","learning","[0.3333333333333333,0,0.3333333333333333,0,0.3333333333333333]"
"1576.9899999722838","","","wizard-gem-trial","3","121691","0.0-3.0","wizard_gems","","","","2019-08-14T06:49:10Z","2019-08-14T07:01:58Z","767427","147.125.37.58","2019-08-10","9fzhnxu5uzmnbuf","false","0893825296-exa-8845083689-mple","3581.995000015013","[93,81,26,47,56]","50","58.33333333333333","[""#6F9CA4"",""#005BA8"",""#DA7100"",""#FF4100"",""#38A600""]","[""grey"",""blue"",""orange"",""red"",""green""]","learning","[0.3333333333333333,0,0.3333333333333333,0,0.3333333333333333]"
"3730.9699999168515","","","wizard-gem-trial","4","127937","0.0-4.0","wizard_gems","","","","2019-08-14T06:49:10Z","2019-08-14T07:01:58Z","767427","147.125.37.58","2019-08-10","9fzhnxu5uzmnbuf","false","0893825296-exa-8845083689-mple","5735.319999977946","[19,98,69,97,10]","50","32.666666666666664","[""#6F9CA4"",""#005BA8"",""#DA7100"",""#FF4100"",""#38A600""]","[""grey"",""blue"",""orange"",""red"",""green""]","learning","[0.3333333333333333,0,0.3333333333333333,0,0.3333333333333333]"
"3047.2650000592694","","","wizard-gem-trial","5","133493","0.0-5.0","wizard_gems","","","","2019-08-14T06:49:10Z","2019-08-14T07:01:58Z","767427","147.125.37.58","2019-08-10","9fzhnxu5uzmnbuf","false","0893825296-exa-8845083689-mple","5048.310000100173","[100,79,16,96,74]","50","63.33333333333333","[""#6F9CA4"",""#005BA8"",""#DA7100"",""#FF4100"",""#38A600""]","[""grey"",""blue"",""orange"",""red"",""green""]","learning","[0.3333333333333333,0,0.3333333333333333,0,0.3333333333333333]"
"7271.000000066124","","","wizard-gem-trial","6","143277","0.0-6.0","wizard_gems","","","","2019-08-14T06:49:10Z","2019-08-14T07:01:58Z","767427","147.125.37.58","2019-08-10","9fzhnxu5uzmnbuf","false","0893825296-exa-8845083689-mple","9276.505000074394","[8,57,76,73,51]","46","45","[""#6F9CA4"",""#005BA8"",""#DA7100"",""#FF4100"",""#38A600""]","[""grey"",""blue"",""orange"",""red"",""green""]","learning","[0.3333333333333333,0,0.3333333333333333,0,0.3333333333333333]"
"4542.870000004768","","","wizard-gem-trial","7","150337","0.0-7.0","wizard_gems","","","","2019-08-14T06:49:10Z","2019-08-14T07:01:58Z","767427","147.125.37.58","2019-08-10","9fzhnxu5uzmnbuf","false","0893825296-exa-8845083689-mple","6548.0700000189245","[75,25,87,28,55]","60","72.33333333333333","[""#6F9CA4"",""#005BA8"",""#DA7100"",""#FF4100"",""#38A600""]","[""grey"",""blue"",""orange"",""red"",""green""]","learning","[0.3333333333333333,0,0.3333333333333333,0,0.3333333333333333]"
"1694.855000008829","","","wizard-gem-trial","8","154538","0.0-8.0","wizard_gems","","","","2019-08-14T06:49:10Z","2019-08-14T07:01:58Z","767427","147.125.37.58","2019-08-10","9fzhnxu5uzmnbuf","false","0893825296-exa-8845083689-mple","3695.4999999143183","[87,48,99,97,84]","90","90","[""#6F9CA4"",""#005BA8"",""#DA7100"",""#FF4100"",""#38A600""]","[""grey"",""blue"",""orange"",""red"",""green""]","learning","[0.3333333333333333,0,0.3333333333333333,0,0.3333333333333333]"
"3255.820000078529","","","wizard-gem-trial","9","160311","0.0-9.0","wizard_gems","","","","2019-08-14T06:49:10Z","2019-08-14T07:01:58Z","767427","147.125.37.58","2019-08-10","9fzhnxu5uzmnbuf","false","0893825296-exa-8845083689-mple","5261.460000067018","[96,41,53,34,67]","79","72","[""#6F9CA4"",""#005BA8"",""#DA7100"",""#FF4100"",""#38A600""]","[""grey"",""blue"",""orange"",""red"",""green""]","learning","[0.3333333333333333,0,0.3333333333333333,0,0.3333333333333333]"
"4206.154999905266","","","wizard-gem-trial","10","167026","0.0-10.0","wizard_gems","","","","2019-08-14T06:49:10Z","2019-08-14T07:01:58Z","767427","147.125.37.58","2019-08-10","9fzhnxu5uzmnbuf","false","0893825296-exa-8845083689-mple","6206.954999943264","[95,95,32,13,56]","58","60.99999999999999","[""#6F9CA4"",""#005BA8"",""#DA7100"",""#FF4100"",""#38A600""]","[""grey"",""blue"",""orange"",""red"",""green""]","learning","[0.3333333333333333,0,0.3333333333333333,0,0.3333333333333333]"
"2405.8150000637397","","","wizard-gem-trial","11","171944","0.0-11.0","wizard_gems","","","","2019-08-14T06:49:10Z","2019-08-14T07:01:58Z","767427","147.125.37.58","2019-08-10","9fzhnxu5uzmnbuf","false","0893825296-exa-8845083689-mple","4411.345000029542","[96,51,95,71,98]","97","96.33333333333333","[""#6F9CA4"",""#005BA8"",""#DA7100"",""#FF4100"",""#38A600""]","[""grey"",""blue"",""orange"",""red"",""green""]","learning","[0.3333333333333333,0,0.3333333333333333,0,0.3333333333333333]"
"5014.64000006672","","","wizard-gem-trial","12","179473","0.0-12.0","wizard_gems","","","","2019-08-14T06:49:10Z","2019-08-14T07:01:58Z","767427","147.125.37.58","2019-08-10","9fzhnxu5uzmnbuf","false","0893825296-exa-8845083689-mple","7017.405000049621","[52,10,93,41,55]","69","66.66666666666666","[""#6F9CA4"",""#005BA8"",""#DA7100"",""#FF4100"",""#38A600""]","[""grey"",""blue"",""orange"",""red"",""green""]","learning","[0.3333333333333333,0,0.3333333333333333,0,0.3333333333333333]"
"3184.815000044182","","","wizard-gem-trial","13","185172","0.0-13.0","wizard_gems","","","","2019-08-14T06:49:10Z","2019-08-14T07:01:58Z","767427","147.125.37.58","2019-08-10","9fzhnxu5uzmnbuf","false","0893825296-exa-8845083689-mple","5188.504999969155","[69,24,1,82,33]","31","34.33333333333333","[""#6F9CA4"",""#005BA8"",""#DA7100"",""#FF4100"",""#38A600""]","[""grey"",""blue"",""orange"",""red"",""green""]","learning","[0.3333333333333333,0,0.3333333333333333,0,0.3333333333333333]"
"2490.529999951832","","","wizard-gem-trial","14","190175","0.0-14.0","wizard_gems","","","","2019-08-14T06:49:10Z","2019-08-14T07:01:58Z","767427","147.125.37.58","2019-08-10","9fzhnxu5uzmnbuf","false","0893825296-exa-8845083689-mple","4491.369999945164","[26,5,18,82,93]","47","45.666666666666664","[""#6F9CA4"",""#005BA8"",""#DA7100"",""#FF4100"",""#38A600""]","[""grey"",""blue"",""orange"",""red"",""green""]","learning","[0.3333333333333333,0,0.3333333333333333,0,0.3333333333333333]"
"2300.6300000706688","","","wizard-gem-trial","15","194988","0.0-15.0","wizard_gems","","","","2019-08-14T06:49:10Z","2019-08-14T07:01:58Z","767427","147.125.37.58","2019-08-10","9fzhnxu5uzmnbuf","false","0893825296-exa-8845083689-mple","4304.950000019744","[20,18,94,51,25]","36","46.33333333333333","[""#6F9CA4"",""#005BA8"",""#DA7100"",""#FF4100"",""#38A600""]","[""grey"",""blue"",""orange"",""red"",""green""]","learning","[0.3333333333333333,0,0.3333333333333333,0,0.3333333333333333]"
"2600.4050000337884","","","wizard-gem-trial","16","200096","0.0-16.0","wizard_gems","","","","2019-08-14T06:49:10Z","2019-08-14T07:01:58Z","767427","147.125.37.58","2019-08-10","9fzhnxu5uzmnbuf","false","0893825296-exa-8845083689-mple","4603.31999999471","[81,17,50,75,78]","75","69.66666666666666","[""#6F9CA4"",""#005BA8"",""#DA7100"",""#FF4100"",""#38A600""]","[""grey"",""blue"",""orange"",""red"",""green""]","learning","[0.3333333333333333,0,0.3333333333333333,0,0.3333333333333333]"
"2200.9850000031292","","","wizard-gem-trial","17","204811","0.0-17.0","wizard_gems","","","","2019-08-14T06:49:10Z","2019-08-14T07:01:58Z","767427","147.125.37.58","2019-08-10","9fzhnxu5uzmnbuf","false","0893825296-exa-8845083689-mple","4204.469999996945","[51,10,69,54,93]","85","71","[""#6F9CA4"",""#005BA8"",""#DA7100"",""#FF4100"",""#38A600""]","[""grey"",""blue"",""orange"",""red"",""green""]","learning","[0.3333333333333333,0,0.3333333333333333,0,0.3333333333333333]"
"4159.8500000545755","","","wizard-gem-trial","18","211482","0.0-18.0","wizard_gems","","","","2019-08-14T06:49:10Z","2019-08-14T07:01:58Z","767427","147.125.37.58","2019-08-10","9fzhnxu5uzmnbuf","false","0893825296-exa-8845083689-mple","6161.929999943823","[47,30,66,73,91]","79","68","[""#6F9CA4"",""#005BA8"",""#DA7100"",""#FF4100"",""#38A600""]","[""grey"",""blue"",""orange"",""red"",""green""]","learning","[0.3333333333333333,0,0.3333333333333333,0,0.3333333333333333]"
"5093.690000008792","","","wizard-gem-trial","19","219089","0.0-19.0","wizard_gems","","","","2019-08-14T06:49:10Z","2019-08-14T07:01:58Z","767427","147.125.37.58","2019-08-10","9fzhnxu5uzmnbuf","false","0893825296-exa-8845083689-mple","7094.960000016727","[43,26,59,36,96]","57","66","[""#6F9CA4"",""#005BA8"",""#DA7100"",""#FF4100"",""#38A600""]","[""grey"",""blue"",""orange"",""red"",""green""]","learning","[0.3333333333333333,0,0.3333333333333333,0,0.3333333333333333]"
"3650.3500000108033","","","wizard-gem-trial","20","225251","0.0-20.0","wizard_gems","","","","2019-08-14T06:49:10Z","2019-08-14T07:01:58Z","767427","147.125.37.58","2019-08-10","9fzhnxu5uzmnbuf","false","0893825296-exa-8845083689-mple","5651.940000010654","[71,99,84,73,66]","88","73.66666666666666","[""#6F9CA4"",""#005BA8"",""#DA7100"",""#FF4100"",""#38A600""]","[""grey"",""blue"",""orange"",""red"",""green""]","learning","[0.3333333333333333,0,0.3333333333333333,0,0.3333333333333333]"
"4609.699999913573","","","wizard-gem-trial","21","232373","0.0-21.0","wizard_gems","","","","2019-08-14T06:49:10Z","2019-08-14T07:01:58Z","767427","147.125.37.58","2019-08-10","9fzhnxu5uzmnbuf","false","0893825296-exa-8845083689-mple","6612.184999976307","[65,41,35,43,1]","35","33.666666666666664","[""#6F9CA4"",""#005BA8"",""#DA7100"",""#FF4100"",""#38A600""]","[""grey"",""blue"",""orange"",""red"",""green""]","learning","[0.3333333333333333,0,0.3333333333333333,0,0.3333333333333333]"
"2639.9549999041483","","","wizard-gem-trial","22","237523","0.0-22.0","wizard_gems","","","","2019-08-14T06:49:10Z","2019-08-14T07:01:58Z","767427","147.125.37.58","2019-08-10","9fzhnxu5uzmnbuf","false","0893825296-exa-8845083689-mple","4642.224999959581","[32,10,99,57,9]","83","46.666666666666664","[""#6F9CA4"",""#005BA8"",""#DA7100"",""#FF4100"",""#38A600""]","[""grey"",""blue"",""orange"",""red"",""green""]","learning","[0.3333333333333333,0,0.3333333333333333,0,0.3333333333333333]"
"4883.535000029951","","","wizard-gem-trial","23","244916","0.0-23.0","wizard_gems","","","","2019-08-14T06:49:10Z","2019-08-14T07:01:58Z","767427","147.125.37.58","2019-08-10","9fzhnxu5uzmnbuf","false","0893825296-exa-8845083689-mple","6884.199999971315","[24,91,67,41,42]","51","44.33333333333333","[""#6F9CA4"",""#005BA8"",""#DA7100"",""#FF4100"",""#38A600""]","[""grey"",""blue"",""orange"",""red"",""green""]","learning","[0.3333333333333333,0,0.3333333333333333,0,0.3333333333333333]"
"3022.4949999246746","","","wizard-gem-trial","24","250450","0.0-24.0","wizard_gems","","","","2019-08-14T06:49:10Z","2019-08-14T07:01:58Z","767427","147.125.37.58","2019-08-10","9fzhnxu5uzmnbuf","false","0893825296-exa-8845083689-mple","5024.6749999932945","[76,59,97,92,23]","67","65.33333333333333","[""#6F9CA4"",""#005BA8"",""#DA7100"",""#FF4100"",""#38A600""]","[""grey"",""blue"",""orange"",""red"",""green""]","learning","[0.3333333333333333,0,0.3333333333333333,0,0.3333333333333333]"
"5795.864999992773","","","wizard-gem-trial","25","258760","0.0-25.0","wizard_gems","","","","2019-08-14T06:49:10Z","2019-08-14T07:01:58Z","767427","147.125.37.58","2019-08-10","9fzhnxu5uzmnbuf","false","0893825296-exa-8845083689-mple","7798.739999998361","[49,21,73,25,65]","60","62.33333333333333","[""#6F9CA4"",""#005BA8"",""#DA7100"",""#FF4100"",""#38A600""]","[""grey"",""blue"",""orange"",""red"",""green""]","learning","[0.3333333333333333,0,0.3333333333333333,0,0.3333333333333333]"
"6348.050000029616","","","wizard-gem-trial","26","267621","0.0-26.0","wizard_gems","","","","2019-08-14T06:49:10Z","2019-08-14T07:01:58Z","767427","147.125.37.58","2019-08-10","9fzhnxu5uzmnbuf","false","0893825296-exa-8845083689-mple","8353.490000008605","[67,97,76,57,98]","68","80.33333333333333","[""#6F9CA4"",""#005BA8"",""#DA7100"",""#FF4100"",""#38A600""]","[""grey"",""blue"",""orange"",""red"",""green""]","learning","[0.3333333333333333,0,0.3333333333333333,0,0.3333333333333333]"
"1259.444999974221","","","wizard-gem-trial","27","271392","0.0-27.0","wizard_gems","","","","2019-08-14T06:49:10Z","2019-08-14T07:01:58Z","767427","147.125.37.58","2019-08-10","9fzhnxu5uzmnbuf","false","0893825296-exa-8845083689-mple","3263.3350000251085","[72,78,74,89,86]","78","77.33333333333333","[""#6F9CA4"",""#005BA8"",""#DA7100"",""#FF4100"",""#38A600""]","[""grey"",""blue"",""orange"",""red"",""green""]","learning","[0.3333333333333333,0,0.3333333333333333,0,0.3333333333333333]"
"2758.5800000233576","","","wizard-gem-trial","28","276663","0.0-28.0","wizard_gems","","","","2019-08-14T06:49:10Z","2019-08-14T07:01:58Z","767427","147.125.37.58","2019-08-10","9fzhnxu5uzmnbuf","false","0893825296-exa-8845083689-mple","4761.669999919832","[17,64,44,98,94]","66","51.666666666666664","[""#6F9CA4"",""#005BA8"",""#DA7100"",""#FF4100"",""#38A600""]","[""grey"",""blue"",""orange"",""red"",""green""]","learning","[0.3333333333333333,0,0.3333333333333333,0,0.3333333333333333]"
"2212.7249999903142","","","wizard-gem-trial","29","281386","0.0-29.0","wizard_gems","","","","2019-08-14T06:49:10Z","2019-08-14T07:01:58Z","767427","147.125.37.58","2019-08-10","9fzhnxu5uzmnbuf","false","0893825296-exa-8845083689-mple","4215.134999947622","[6,4,74,79,15]","31","31.666666666666664","[""#6F9CA4"",""#005BA8"",""#DA7100"",""#FF4100"",""#38A600""]","[""grey"",""blue"",""orange"",""red"",""green""]","learning","[0.3333333333333333,0,0.3333333333333333,0,0.3333333333333333]"
"7295.634999987669","","","wizard-gem-trial","30","291192","0.0-30.0","wizard_gems","","","","2019-08-14T06:49:10Z","2019-08-14T07:01:58Z","767427","147.125.37.58","2019-08-10","9fzhnxu5uzmnbuf","false","0893825296-exa-8845083689-mple","9297.524999943562","[79,66,9,30,77]","42","55","[""#6F9CA4"",""#005BA8"",""#DA7100"",""#FF4100"",""#38A600""]","[""grey"",""blue"",""orange"",""red"",""green""]","learning","[0.3333333333333333,0,0.3333333333333333,0,0.3333333333333333]"
"2139.3450000323355","","","wizard-gem-trial","31","295842","0.0-31.0","wizard_gems","","","","2019-08-14T06:49:10Z","2019-08-14T07:01:58Z","767427","147.125.37.58","2019-08-10","9fzhnxu5uzmnbuf","false","0893825296-exa-8845083689-mple","4142.9149999748915","[97,75,34,25,46]","43","58.999999999999986","[""#6F9CA4"",""#005BA8"",""#DA7100"",""#FF4100"",""#38A600""]","[""grey"",""blue"",""orange"",""red"",""green""]","learning","[0.3333333333333333,0,0.3333333333333333,0,0.3333333333333333]"
"2231.335000018589","","","wizard-gem-trial","32","300586","0.0-32.0","wizard_gems","","","","2019-08-14T06:49:10Z","2019-08-14T07:01:58Z","767427","147.125.37.58","2019-08-10","9fzhnxu5uzmnbuf","false","0893825296-exa-8845083689-mple","4236.834999988787","[36,40,8,15,33]","27","25.666666666666664","[""#6F9CA4"",""#005BA8"",""#DA7100"",""#FF4100"",""#38A600""]","[""grey"",""blue"",""orange"",""red"",""green""]","learning","[0.3333333333333333,0,0.3333333333333333,0,0.3333333333333333]"
"2860.08499993477","","","wizard-gem-trial","33","305959","0.0-33.0","wizard_gems","","","","2019-08-14T06:49:10Z","2019-08-14T07:01:58Z","767427","147.125.37.58","2019-08-10","9fzhnxu5uzmnbuf","false","0893825296-exa-8845083689-mple","4861.284999991767","[5,100,32,37,10]","20","15.666666666666664","[""#6F9CA4"",""#005BA8"",""#DA7100"",""#FF4100"",""#38A600""]","[""grey"",""blue"",""orange"",""red"",""green""]","learning","[0.3333333333333333,0,0.3333333333333333,0,0.3333333333333333]"
"2713.5749999433756","","","wizard-gem-trial","34","311181","0.0-34.0","wizard_gems","","","","2019-08-14T06:49:10Z","2019-08-14T07:01:58Z","767427","147.125.37.58","2019-08-10","9fzhnxu5uzmnbuf","false","0893825296-exa-8845083689-mple","4715.654999949038","[11,36,72,55,24]","24","35.66666666666667","[""#6F9CA4"",""#005BA8"",""#DA7100"",""#FF4100"",""#38A600""]","[""grey"",""blue"",""orange"",""red"",""green""]","learning","[0.3333333333333333,0,0.3333333333333333,0,0.3333333333333333]"
"2091.024999972433","","","wizard-gem-trial","35","315780","0.0-35.0","wizard_gems","","","","2019-08-14T06:49:10Z","2019-08-14T07:01:58Z","767427","147.125.37.58","2019-08-10","9fzhnxu5uzmnbuf","false","0893825296-exa-8845083689-mple","4091.7399999452755","[25,46,97,93,26]","47","49.33333333333332","[""#6F9CA4"",""#005BA8"",""#DA7100"",""#FF4100"",""#38A600""]","[""grey"",""blue"",""orange"",""red"",""green""]","learning","[0.3333333333333333,0,0.3333333333333333,0,0.3333333333333333]"
"2627.2350000217557","","","wizard-gem-trial","36","320919","0.0-36.0","wizard_gems","","","","2019-08-14T06:49:10Z","2019-08-14T07:01:58Z","767427","147.125.37.58","2019-08-10","9fzhnxu5uzmnbuf","false","0893825296-exa-8845083689-mple","4630.074999993667","[48,38,43,17,65]","56","52","[""#6F9CA4"",""#005BA8"",""#DA7100"",""#FF4100"",""#38A600""]","[""grey"",""blue"",""orange"",""red"",""green""]","learning","[0.3333333333333333,0,0.3333333333333333,0,0.3333333333333333]"
"4058.9299999410287","","","wizard-gem-trial","37","327492","0.0-37.0","wizard_gems","","","","2019-08-14T06:49:10Z","2019-08-14T07:01:58Z","767427","147.125.37.58","2019-08-10","9fzhnxu5uzmnbuf","false","0893825296-exa-8845083689-mple","6063.375000027008","[11,52,84,27,56]","46","50.33333333333333","[""#6F9CA4"",""#005BA8"",""#DA7100"",""#FF4100"",""#38A600""]","[""grey"",""blue"",""orange"",""red"",""green""]","learning","[0.3333333333333333,0,0.3333333333333333,0,0.3333333333333333]"
"13865.5049999943","","","wizard-gem-trial","38","343874","0.0-38.0","wizard_gems","","","","2019-08-14T06:49:10Z","2019-08-14T07:01:58Z","767427","147.125.37.58","2019-08-10","9fzhnxu5uzmnbuf","false","0893825296-exa-8845083689-mple","15870.929999975488","[37,52,50,6,78]","36","55","[""#6F9CA4"",""#005BA8"",""#DA7100"",""#FF4100"",""#38A600""]","[""grey"",""blue"",""orange"",""red"",""green""]","learning","[0.3333333333333333,0,0.3333333333333333,0,0.3333333333333333]"
"2406.3799999421462","","","wizard-gem-trial","39","348790","0.0-39.0","wizard_gems","","","","2019-08-14T06:49:10Z","2019-08-14T07:01:58Z","767427","147.125.37.58","2019-08-10","9fzhnxu5uzmnbuf","false","0893825296-exa-8845083689-mple","4408.294999971986","[85,90,65,58,8]","56","52.666666666666664","[""#6F9CA4"",""#005BA8"",""#DA7100"",""#FF4100"",""#38A600""]","[""grey"",""blue"",""orange"",""red"",""green""]","learning","[0.3333333333333333,0,0.3333333333333333,0,0.3333333333333333]"
"4761.275000055321","","","wizard-gem-trial","40","356061","0.0-40.0","wizard_gems","","","","2019-08-14T06:49:10Z","2019-08-14T07:01:58Z","767427","147.125.37.58","2019-08-10","9fzhnxu5uzmnbuf","false","0893825296-exa-8845083689-mple","6762.105000088923","[41,90,41,4,13]","25","31.666666666666664","[""#6F9CA4"",""#005BA8"",""#DA7100"",""#FF4100"",""#38A600""]","[""grey"",""blue"",""orange"",""red"",""green""]","learning","[0.3333333333333333,0,0.3333333333333333,0,0.3333333333333333]"
"3515.26500005275","","","wizard-gem-trial","41","362088","0.0-41.0","wizard_gems","","","","2019-08-14T06:49:10Z","2019-08-14T07:01:58Z","767427","147.125.37.58","2019-08-10","9fzhnxu5uzmnbuf","false","0893825296-exa-8845083689-mple","5517.26500003133","[9,95,97,7,67]","51","57.66666666666666","[""#6F9CA4"",""#005BA8"",""#DA7100"",""#FF4100"",""#38A600""]","[""grey"",""blue"",""orange"",""red"",""green""]","learning","[0.3333333333333333,0,0.3333333333333333,0,0.3333333333333333]"
"3771.844999981113","","","wizard-gem-trial","42","368368","0.0-42.0","wizard_gems","","","","2019-08-14T06:49:10Z","2019-08-14T07:01:58Z","767427","147.125.37.58","2019-08-10","9fzhnxu5uzmnbuf","false","0893825296-exa-8845083689-mple","5772.860000026412","[40,47,74,71,21]","62","45","[""#6F9CA4"",""#005BA8"",""#DA7100"",""#FF4100"",""#38A600""]","[""grey"",""blue"",""orange"",""red"",""green""]","learning","[0.3333333333333333,0,0.3333333333333333,0,0.3333333333333333]"
"2246.510000084527","","","wizard-gem-trial","43","373123","0.0-43.0","wizard_gems","","","","2019-08-14T06:49:10Z","2019-08-14T07:01:58Z","767427","147.125.37.58","2019-08-10","9fzhnxu5uzmnbuf","false","0893825296-exa-8845083689-mple","4247.895000036806","[70,78,9,28,1]","26","26.666666666666664","[""#6F9CA4"",""#005BA8"",""#DA7100"",""#FF4100"",""#38A600""]","[""grey"",""blue"",""orange"",""red"",""green""]","learning","[0.3333333333333333,0,0.3333333333333333,0,0.3333333333333333]"
"2712.385000078939","","","wizard-gem-trial","44","378347","0.0-44.0","wizard_gems","","","","2019-08-14T06:49:10Z","2019-08-14T07:01:58Z","767427","147.125.37.58","2019-08-10","9fzhnxu5uzmnbuf","false","0893825296-exa-8845083689-mple","4713.749999995343","[3,37,5,98,90]","31","32.666666666666664","[""#6F9CA4"",""#005BA8"",""#DA7100"",""#FF4100"",""#38A600""]","[""grey"",""blue"",""orange"",""red"",""green""]","learning","[0.3333333333333333,0,0.3333333333333333,0,0.3333333333333333]"
"8149.315000046045","","","wizard-gem-trial","45","389005","0.0-45.0","wizard_gems","","","","2019-08-14T06:49:10Z","2019-08-14T07:01:58Z","767427","147.125.37.58","2019-08-10","9fzhnxu5uzmnbuf","false","0893825296-exa-8845083689-mple","10150.780000025406","[97,22,90,24,9]","41","65.33333333333333","[""#6F9CA4"",""#005BA8"",""#DA7100"",""#FF4100"",""#38A600""]","[""grey"",""blue"",""orange"",""red"",""green""]","learning","[0.3333333333333333,0,0.3333333333333333,0,0.3333333333333333]"
"8438.47499997355","","","wizard-gem-trial","46","399957","0.0-46.0","wizard_gems","","","","2019-08-14T06:49:10Z","2019-08-14T07:01:58Z","767427","147.125.37.58","2019-08-10","9fzhnxu5uzmnbuf","false","0893825296-exa-8845083689-mple","10441.49999995716","[82,80,56,83,90]","83","76","[""#6F9CA4"",""#005BA8"",""#DA7100"",""#FF4100"",""#38A600""]","[""grey"",""blue"",""orange"",""red"",""green""]","learning","[0.3333333333333333,0,0.3333333333333333,0,0.3333333333333333]"
"9351.699999999255","","","wizard-gem-trial","47","411818","0.0-47.0","wizard_gems","","","","2019-08-14T06:49:10Z","2019-08-14T07:01:58Z","767427","147.125.37.58","2019-08-10","9fzhnxu5uzmnbuf","false","0893825296-exa-8845083689-mple","11352.599999983795","[25,65,21,66,52]","25","32.666666666666664","[""#6F9CA4"",""#005BA8"",""#DA7100"",""#FF4100"",""#38A600""]","[""grey"",""blue"",""orange"",""red"",""green""]","learning","[0.3333333333333333,0,0.3333333333333333,0,0.3333333333333333]"
"2745.615000021644","","","wizard-gem-trial","48","417072","0.0-48.0","wizard_gems","","","","2019-08-14T06:49:10Z","2019-08-14T07:01:58Z","767427","147.125.37.58","2019-08-10","9fzhnxu5uzmnbuf","false","0893825296-exa-8845083689-mple","4746.455000014976","[77,10,26,74,73]","49","58.66666666666666","[""#6F9CA4"",""#005BA8"",""#DA7100"",""#FF4100"",""#38A600""]","[""grey"",""blue"",""orange"",""red"",""green""]","learning","[0.3333333333333333,0,0.3333333333333333,0,0.3333333333333333]"
"5210.119999945164","","","wizard-gem-trial","49","424796","0.0-49.0","wizard_gems","","","","2019-08-14T06:49:10Z","2019-08-14T07:01:58Z","767427","147.125.37.58","2019-08-10","9fzhnxu5uzmnbuf","false","0893825296-exa-8845083689-mple","7212.204999988899","[97,2,88,56,44]","80","76.33333333333333","[""#6F9CA4"",""#005BA8"",""#DA7100"",""#FF4100"",""#38A600""]","[""grey"",""blue"",""orange"",""red"",""green""]","learning","[0.3333333333333333,0,0.3333333333333333,0,0.3333333333333333]"
"2523.714999901131","","","wizard-gem-trial","50","429836","0.0-50.0","wizard_gems","","","","2019-08-14T06:49:10Z","2019-08-14T07:01:58Z","767427","147.125.37.58","2019-08-10","9fzhnxu5uzmnbuf","false","0893825296-exa-8845083689-mple","4528.36999995634","[46,43,98,16,84]","65","76","[""#6F9CA4"",""#005BA8"",""#DA7100"",""#FF4100"",""#38A600""]","[""grey"",""blue"",""orange"",""red"",""green""]","learning","[0.3333333333333333,0,0.3333333333333333,0,0.3333333333333333]"
"2258.7499999208376","","","wizard-gem-trial","51","434611","0.0-51.0","wizard_gems","","","","2019-08-14T06:49:10Z","2019-08-14T07:01:58Z","767427","147.125.37.58","2019-08-10","9fzhnxu5uzmnbuf","false","0893825296-exa-8845083689-mple","4263.55000003241","[53,21,88,68,31]","59","57.33333333333333","[""#6F9CA4"",""#005BA8"",""#DA7100"",""#FF4100"",""#38A600""]","[""grey"",""blue"",""orange"",""red"",""green""]","learning","[0.3333333333333333,0,0.3333333333333333,0,0.3333333333333333]"
"4880.710000055842","","","wizard-gem-trial","52","441999","0.0-52.0","wizard_gems","","","","2019-08-14T06:49:10Z","2019-08-14T07:01:58Z","767427","147.125.37.58","2019-08-10","9fzhnxu5uzmnbuf","false","0893825296-exa-8845083689-mple","6881.615000078455","[37,54,36,69,68]","53","47","[""#6F9CA4"",""#005BA8"",""#DA7100"",""#FF4100"",""#38A600""]","[""grey"",""blue"",""orange"",""red"",""green""]","learning","[0.3333333333333333,0,0.3333333333333333,0,0.3333333333333333]"
"7153.085000114515","","","wizard-gem-trial","53","451663","0.0-53.0","wizard_gems","","","","2019-08-14T06:49:10Z","2019-08-14T07:01:58Z","767427","147.125.37.58","2019-08-10","9fzhnxu5uzmnbuf","false","0893825296-exa-8845083689-mple","9157.285000081174","[0,68,40,97,47]","13","29","[""#6F9CA4"",""#005BA8"",""#DA7100"",""#FF4100"",""#38A600""]","[""grey"",""blue"",""orange"",""red"",""green""]","learning","[0.3333333333333333,0,0.3333333333333333,0,0.3333333333333333]"
"5127.040000050329","","","wizard-gem-trial","54","459303","0.0-54.0","wizard_gems","","","","2019-08-14T06:49:10Z","2019-08-14T07:01:58Z","767427","147.125.37.58","2019-08-10","9fzhnxu5uzmnbuf","false","0893825296-exa-8845083689-mple","7132.590000052005","[14,6,61,22,56]","39","43.666666666666664","[""#6F9CA4"",""#005BA8"",""#DA7100"",""#FF4100"",""#38A600""]","[""grey"",""blue"",""orange"",""red"",""green""]","learning","[0.3333333333333333,0,0.3333333333333333,0,0.3333333333333333]"
"5299.05500006862","","","wizard-gem-trial","55","467118","0.0-55.0","wizard_gems","","","","2019-08-14T06:49:10Z","2019-08-14T07:01:58Z","767427","147.125.37.58","2019-08-10","9fzhnxu5uzmnbuf","false","0893825296-exa-8845083689-mple","7302.989999996498","[73,71,23,2,65]","53","53.666666666666664","[""#6F9CA4"",""#005BA8"",""#DA7100"",""#FF4100"",""#38A600""]","[""grey"",""blue"",""orange"",""red"",""green""]","learning","[0.3333333333333333,0,0.3333333333333333,0,0.3333333333333333]"
"3607.4200000148267","","","wizard-gem-trial","56","473235","0.0-56.0","wizard_gems","","","","2019-08-14T06:49:10Z","2019-08-14T07:01:58Z","767427","147.125.37.58","2019-08-10","9fzhnxu5uzmnbuf","false","0893825296-exa-8845083689-mple","5610.439999960363","[8,44,91,93,98]","78","65.66666666666666","[""#6F9CA4"",""#005BA8"",""#DA7100"",""#FF4100"",""#38A600""]","[""grey"",""blue"",""orange"",""red"",""green""]","learning","[0.3333333333333333,0,0.3333333333333333,0,0.3333333333333333]"
"2424.2599999997765","","","wizard-gem-trial","57","478171","0.0-57.0","wizard_gems","","","","2019-08-14T06:49:10Z","2019-08-14T07:01:58Z","767427","147.125.37.58","2019-08-10","9fzhnxu5uzmnbuf","false","0893825296-exa-8845083689-mple","4425.86499999743","[38,80,100,39,59]","59","65.66666666666666","[""#6F9CA4"",""#005BA8"",""#DA7100"",""#FF4100"",""#38A600""]","[""grey"",""blue"",""orange"",""red"",""green""]","learning","[0.3333333333333333,0,0.3333333333333333,0,0.3333333333333333]"
"2823.78500001505","","","wizard-gem-trial","58","483504","0.0-58.0","wizard_gems","","","","2019-08-14T06:49:10Z","2019-08-14T07:01:58Z","767427","147.125.37.58","2019-08-10","9fzhnxu5uzmnbuf","false","0893825296-exa-8845083689-mple","4824.649999965914","[57,22,30,24,65]","45","50.666666666666664","[""#6F9CA4"",""#005BA8"",""#DA7100"",""#FF4100"",""#38A600""]","[""grey"",""blue"",""orange"",""red"",""green""]","learning","[0.3333333333333333,0,0.3333333333333333,0,0.3333333333333333]"
"6016.444999957457","","","wizard-gem-trial","59","492031","0.0-59.0","wizard_gems","","","","2019-08-14T06:49:10Z","2019-08-14T07:01:58Z","767427","147.125.37.58","2019-08-10","9fzhnxu5uzmnbuf","false","0893825296-exa-8845083689-mple","8019.779999973252","[90,72,43,35,18]","42","50.33333333333333","[""#6F9CA4"",""#005BA8"",""#DA7100"",""#FF4100"",""#38A600""]","[""grey"",""blue"",""orange"",""red"",""green""]","learning","[0.3333333333333333,0,0.3333333333333333,0,0.3333333333333333]"
"3207.754999981262","","","wizard-gem-trial","60","497750","0.0-60.0","wizard_gems","","","","2019-08-14T06:49:10Z","2019-08-14T07:01:58Z","767427","147.125.37.58","2019-08-10","9fzhnxu5uzmnbuf","false","0893825296-exa-8845083689-mple","5211.595000000671","[13,64,34,68,16]","22","20.999999999999996","[""#6F9CA4"",""#005BA8"",""#DA7100"",""#FF4100"",""#38A600""]","[""grey"",""blue"",""orange"",""red"",""green""]","learning","[0.3333333333333333,0,0.3333333333333333,0,0.3333333333333333]"
"4170.750000048429","","","wizard-gem-trial","61","504431","0.0-61.0","wizard_gems","","","","2019-08-14T06:49:10Z","2019-08-14T07:01:58Z","767427","147.125.37.58","2019-08-10","9fzhnxu5uzmnbuf","false","0893825296-exa-8845083689-mple","6174.750000005588","[90,99,78,33,95]","89","87.66666666666666","[""#6F9CA4"",""#005BA8"",""#DA7100"",""#FF4100"",""#38A600""]","[""grey"",""blue"",""orange"",""red"",""green""]","learning","[0.3333333333333333,0,0.3333333333333333,0,0.3333333333333333]"
"2776.2099999235943","","","wizard-gem-trial","62","509718","0.0-62.0","wizard_gems","","","","2019-08-14T06:49:10Z","2019-08-14T07:01:58Z","767427","147.125.37.58","2019-08-10","9fzhnxu5uzmnbuf","false","0893825296-exa-8845083689-mple","4777.014999999665","[61,33,16,57,28]","21","35","[""#6F9CA4"",""#005BA8"",""#DA7100"",""#FF4100"",""#38A600""]","[""grey"",""blue"",""orange"",""red"",""green""]","learning","[0.3333333333333333,0,0.3333333333333333,0,0.3333333333333333]"
"10819.640000001527","","","wizard-gem-trial","63","523049","0.0-63.0","wizard_gems","","","","2019-08-14T06:49:10Z","2019-08-14T07:01:58Z","767427","147.125.37.58","2019-08-10","9fzhnxu5uzmnbuf","false","0893825296-exa-8845083689-mple","12820.440000039525","[76,49,92,24,36]","75","68","[""#6F9CA4"",""#005BA8"",""#DA7100"",""#FF4100"",""#38A600""]","[""grey"",""blue"",""orange"",""red"",""green""]","learning","[0.3333333333333333,0,0.3333333333333333,0,0.3333333333333333]"
"9123.045000014827","","","wizard-gem-trial","64","534683","0.0-64.0","wizard_gems","","","","2019-08-14T06:49:10Z","2019-08-14T07:01:58Z","767427","147.125.37.58","2019-08-10","9fzhnxu5uzmnbuf","false","0893825296-exa-8845083689-mple","11124.429999967106","[10,58,30,72,38]","28","26","[""#6F9CA4"",""#005BA8"",""#DA7100"",""#FF4100"",""#38A600""]","[""grey"",""blue"",""orange"",""red"",""green""]","learning","[0.3333333333333333,0,0.3333333333333333,0,0.3333333333333333]"
"3328.5349999787286","","","wizard-gem-trial","65","540519","0.0-65.0","wizard_gems","","","","2019-08-14T06:49:10Z","2019-08-14T07:01:58Z","767427","147.125.37.58","2019-08-10","9fzhnxu5uzmnbuf","false","0893825296-exa-8845083689-mple","5329.529999988154","[4,53,76,8,22]","20","34","[""#6F9CA4"",""#005BA8"",""#DA7100"",""#FF4100"",""#38A600""]","[""grey"",""blue"",""orange"",""red"",""green""]","learning","[0.3333333333333333,0,0.3333333333333333,0,0.3333333333333333]"
"2178.0450000660494","","","wizard-gem-trial","66","545204","0.0-66.0","wizard_gems","","","","2019-08-14T06:49:10Z","2019-08-14T07:01:58Z","767427","147.125.37.58","2019-08-10","9fzhnxu5uzmnbuf","false","0893825296-exa-8845083689-mple","4178.565000067465","[78,15,26,48,12]","26","38.666666666666664","[""#6F9CA4"",""#005BA8"",""#DA7100"",""#FF4100"",""#38A600""]","[""grey"",""blue"",""orange"",""red"",""green""]","learning","[0.3333333333333333,0,0.3333333333333333,0,0.3333333333333333]"
"1779.8099999781698","","","wizard-gem-trial","67","549493","0.0-67.0","wizard_gems","","","","2019-08-14T06:49:10Z","2019-08-14T07:01:58Z","767427","147.125.37.58","2019-08-10","9fzhnxu5uzmnbuf","false","0893825296-exa-8845083689-mple","3781.6749999765307","[50,97,74,33,70]","53","64.66666666666666","[""#6F9CA4"",""#005BA8"",""#DA7100"",""#FF4100"",""#38A600""]","[""grey"",""blue"",""orange"",""red"",""green""]","learning","[0.3333333333333333,0,0.3333333333333333,0,0.3333333333333333]"
"3550.619999994524","","","wizard-gem-trial","68","555556","0.0-68.0","wizard_gems","","","","2019-08-14T06:49:10Z","2019-08-14T07:01:58Z","767427","147.125.37.58","2019-08-10","9fzhnxu5uzmnbuf","false","0893825296-exa-8845083689-mple","5551.794999977574","[82,29,63,31,49]","65","64.66666666666666","[""#6F9CA4"",""#005BA8"",""#DA7100"",""#FF4100"",""#38A600""]","[""grey"",""blue"",""orange"",""red"",""green""]","learning","[0.3333333333333333,0,0.3333333333333333,0,0.3333333333333333]"
"3297.6300000445917","","","wizard-gem-trial","69","561367","0.0-69.0","wizard_gems","","","","2019-08-14T06:49:10Z","2019-08-14T07:01:58Z","767427","147.125.37.58","2019-08-10","9fzhnxu5uzmnbuf","false","0893825296-exa-8845083689-mple","5301.8700000829995","[53,97,67,19,37]","50","52.33333333333333","[""#6F9CA4"",""#005BA8"",""#DA7100"",""#FF4100"",""#38A600""]","[""grey"",""blue"",""orange"",""red"",""green""]","learning","[0.3333333333333333,0,0.3333333333333333,0,0.3333333333333333]"
"2855.4449999937788","","","wizard-gem-trial","70","566733","0.0-70.0","wizard_gems","","","","2019-08-14T06:49:10Z","2019-08-14T07:01:58Z","767427","147.125.37.58","2019-08-10","9fzhnxu5uzmnbuf","false","0893825296-exa-8845083689-mple","4855.93499999959","[28,69,33,33,44]","33","35","[""#6F9CA4"",""#005BA8"",""#DA7100"",""#FF4100"",""#38A600""]","[""grey"",""blue"",""orange"",""red"",""green""]","learning","[0.3333333333333333,0,0.3333333333333333,0,0.3333333333333333]"
"7669.289999990724","","","wizard-gem-trial","71","576909","0.0-71.0","wizard_gems","","","","2019-08-14T06:49:10Z","2019-08-14T07:01:58Z","767427","147.125.37.58","2019-08-10","9fzhnxu5uzmnbuf","false","0893825296-exa-8845083689-mple","9669.709999929182","[21,23,83,51,91]","62","65","[""#6F9CA4"",""#005BA8"",""#DA7100"",""#FF4100"",""#38A600""]","[""grey"",""blue"",""orange"",""red"",""green""]","learning","[0.3333333333333333,0,0.3333333333333333,0,0.3333333333333333]"
"5453.475000103936","","","wizard-gem-trial","72","584871","0.0-72.0","wizard_gems","","","","2019-08-14T06:49:10Z","2019-08-14T07:01:58Z","767427","147.125.37.58","2019-08-10","9fzhnxu5uzmnbuf","false","0893825296-exa-8845083689-mple","7454.500000108965","[2,23,34,10,94]","45","43.33333333333333","[""#6F9CA4"",""#005BA8"",""#DA7100"",""#FF4100"",""#38A600""]","[""grey"",""blue"",""orange"",""red"",""green""]","learning","[0.3333333333333333,0,0.3333333333333333,0,0.3333333333333333]"
"3049.200000008568","","","wizard-gem-trial","73","590434","0.0-73.0","wizard_gems","","","","2019-08-14T06:49:10Z","2019-08-14T07:01:58Z","767427","147.125.37.58","2019-08-10","9fzhnxu5uzmnbuf","false","0893825296-exa-8845083689-mple","5052.229999913834","[70,37,98,54,52]","71","73.33333333333333","[""#6F9CA4"",""#005BA8"",""#DA7100"",""#FF4100"",""#38A600""]","[""grey"",""blue"",""orange"",""red"",""green""]","learning","[0.3333333333333333,0,0.3333333333333333,0,0.3333333333333333]"
"3855.8399999747053","","","wizard-gem-trial","74","596801","0.0-74.0","wizard_gems","","","","2019-08-14T06:49:10Z","2019-08-14T07:01:58Z","767427","147.125.37.58","2019-08-10","9fzhnxu5uzmnbuf","false","0893825296-exa-8845083689-mple","5856.975000002421","[3,17,56,33,21]","23","26.666666666666664","[""#6F9CA4"",""#005BA8"",""#DA7100"",""#FF4100"",""#38A600""]","[""grey"",""blue"",""orange"",""red"",""green""]","learning","[0.3333333333333333,0,0.3333333333333333,0,0.3333333333333333]"
"2791.3100000005215","","","wizard-gem-trial","75","602106","0.0-75.0","wizard_gems","","","","2019-08-14T06:49:10Z","2019-08-14T07:01:58Z","767427","147.125.37.58","2019-08-10","9fzhnxu5uzmnbuf","false","0893825296-exa-8845083689-mple","4795.260000042617","[11,24,30,82,82]","43","41","[""#6F9CA4"",""#005BA8"",""#DA7100"",""#FF4100"",""#38A600""]","[""grey"",""blue"",""orange"",""red"",""green""]","learning","[0.3333333333333333,0,0.3333333333333333,0,0.3333333333333333]"
"4449.074999894947","","","wizard-gem-trial","76","609067","0.0-76.0","wizard_gems","","","","2019-08-14T06:49:10Z","2019-08-14T07:01:58Z","767427","147.125.37.58","2019-08-10","9fzhnxu5uzmnbuf","false","0893825296-exa-8845083689-mple","6454.214999917895","[35,76,33,77,3]","27","23.666666666666664","[""#6F9CA4"",""#005BA8"",""#DA7100"",""#FF4100"",""#38A600""]","[""grey"",""blue"",""orange"",""red"",""green""]","learning","[0.3333333333333333,0,0.3333333333333333,0,0.3333333333333333]"
"3129.244999960065","","","wizard-gem-trial","77","614707","0.0-77.0","wizard_gems","","","","2019-08-14T06:49:10Z","2019-08-14T07:01:58Z","767427","147.125.37.58","2019-08-10","9fzhnxu5uzmnbuf","false","0893825296-exa-8845083689-mple","5133.124999934807","[47,49,7,37,24]","22","26","[""#6F9CA4"",""#005BA8"",""#DA7100"",""#FF4100"",""#38A600""]","[""grey"",""blue"",""orange"",""red"",""green""]","learning","[0.3333333333333333,0,0.3333333333333333,0,0.3333333333333333]"
"3671.7199999839067","","","wizard-gem-trial","78","620888","0.0-78.0","wizard_gems","","","","2019-08-14T06:49:10Z","2019-08-14T07:01:58Z","767427","147.125.37.58","2019-08-10","9fzhnxu5uzmnbuf","false","0893825296-exa-8845083689-mple","5672.989999991842","[13,13,9,2,90]","33","37.333333333333336","[""#6F9CA4"",""#005BA8"",""#DA7100"",""#FF4100"",""#38A600""]","[""grey"",""blue"",""orange"",""red"",""green""]","learning","[0.3333333333333333,0,0.3333333333333333,0,0.3333333333333333]"
"3436.60000001546","","","wizard-gem-trial","79","626835","0.0-79.0","wizard_gems","","","","2019-08-14T06:49:10Z","2019-08-14T07:01:58Z","767427","147.125.37.58","2019-08-10","9fzhnxu5uzmnbuf","false","0893825296-exa-8845083689-mple","5437.629999942146","[26,18,51,44,36]","35","37.666666666666664","[""#6F9CA4"",""#005BA8"",""#DA7100"",""#FF4100"",""#38A600""]","[""grey"",""blue"",""orange"",""red"",""green""]","learning","[0.3333333333333333,0,0.3333333333333333,0,0.3333333333333333]"
"3030.839999904856","","","wizard-gem-trial","80","632382","0.0-80.0","wizard_gems","","","","2019-08-14T06:49:10Z","2019-08-14T07:01:58Z","767427","147.125.37.58","2019-08-10","9fzhnxu5uzmnbuf","false","0893825296-exa-8845083689-mple","5036.3049999577925","[29,44,100,11,4]","37","44.33333333333333","[""#6F9CA4"",""#005BA8"",""#DA7100"",""#FF4100"",""#38A600""]","[""grey"",""blue"",""orange"",""red"",""green""]","learning","[0.3333333333333333,0,0.3333333333333333,0,0.3333333333333333]"
"4068.4800000162795","","","wizard-gem-trial","81","638959","0.0-81.0","wizard_gems","","","","2019-08-14T06:49:10Z","2019-08-14T07:01:58Z","767427","147.125.37.58","2019-08-10","9fzhnxu5uzmnbuf","false","0893825296-exa-8845083689-mple","6069.174999953248","[1,22,54,52,16]","19","23.666666666666664","[""#6F9CA4"",""#005BA8"",""#DA7100"",""#FF4100"",""#38A600""]","[""grey"",""blue"",""orange"",""red"",""green""]","learning","[0.3333333333333333,0,0.3333333333333333,0,0.3333333333333333]"
"3645.865000085905","","","wizard-gem-trial","82","645120","0.0-82.0","wizard_gems","","","","2019-08-14T06:49:10Z","2019-08-14T07:01:58Z","767427","147.125.37.58","2019-08-10","9fzhnxu5uzmnbuf","false","0893825296-exa-8845083689-mple","5649.555000010878","[100,88,86,96,88]","94","91.33333333333333","[""#6F9CA4"",""#005BA8"",""#DA7100"",""#FF4100"",""#38A600""]","[""grey"",""blue"",""orange"",""red"",""green""]","learning","[0.3333333333333333,0,0.3333333333333333,0,0.3333333333333333]"
"2684.9349999101833","","","wizard-gem-trial","83","650317","0.0-83.0","wizard_gems","","","","2019-08-14T06:49:10Z","2019-08-14T07:01:58Z","767427","147.125.37.58","2019-08-10","9fzhnxu5uzmnbuf","false","0893825296-exa-8845083689-mple","4688.854999956675","[10,28,3,27,55]","18","22.666666666666664","[""#6F9CA4"",""#005BA8"",""#DA7100"",""#FF4100"",""#38A600""]","[""grey"",""blue"",""orange"",""red"",""green""]","learning","[0.3333333333333333,0,0.3333333333333333,0,0.3333333333333333]"
"6182.0300000254065","","","wizard-gem-trial","84","659010","0.0-84.0","wizard_gems","","","","2019-08-14T06:49:10Z","2019-08-14T07:01:58Z","767427","147.125.37.58","2019-08-10","9fzhnxu5uzmnbuf","false","0893825296-exa-8845083689-mple","8185.564999934286","[35,0,92,39,58]","61","61.66666666666666","[""#6F9CA4"",""#005BA8"",""#DA7100"",""#FF4100"",""#38A600""]","[""grey"",""blue"",""orange"",""red"",""green""]","learning","[0.3333333333333333,0,0.3333333333333333,0,0.3333333333333333]"
"3830.244999960996","","","wizard-gem-trial","85","665353","0.0-85.0","wizard_gems","","","","2019-08-14T06:49:10Z","2019-08-14T07:01:58Z","767427","147.125.37.58","2019-08-10","9fzhnxu5uzmnbuf","false","0893825296-exa-8845083689-mple","5831.744999974035","[35,59,72,71,20]","37","42.33333333333333","[""#6F9CA4"",""#005BA8"",""#DA7100"",""#FF4100"",""#38A600""]","[""grey"",""blue"",""orange"",""red"",""green""]","learning","[0.3333333333333333,0,0.3333333333333333,0,0.3333333333333333]"
"2535.1749999681488","","","wizard-gem-trial","86","670403","0.0-86.0","wizard_gems","","","","2019-08-14T06:49:10Z","2019-08-14T07:01:58Z","767427","147.125.37.58","2019-08-10","9fzhnxu5uzmnbuf","false","0893825296-exa-8845083689-mple","4537.479999940842","[90,53,54,37,89]","78","77.66666666666666","[""#6F9CA4"",""#005BA8"",""#DA7100"",""#FF4100"",""#38A600""]","[""grey"",""blue"",""orange"",""red"",""green""]","learning","[0.3333333333333333,0,0.3333333333333333,0,0.3333333333333333]"
"2738.6849999893457","","","wizard-gem-trial","87","675654","0.0-87.0","wizard_gems","","","","2019-08-14T06:49:10Z","2019-08-14T07:01:58Z","767427","147.125.37.58","2019-08-10","9fzhnxu5uzmnbuf","false","0893825296-exa-8845083689-mple","4744.31499990169","[14,3,21,84,99]","45","44.666666666666664","[""#6F9CA4"",""#005BA8"",""#DA7100"",""#FF4100"",""#38A600""]","[""grey"",""blue"",""orange"",""red"",""green""]","learning","[0.3333333333333333,0,0.3333333333333333,0,0.3333333333333333]"
"11806.119999964722","","","wizard-gem-trial","88","689977","0.0-88.0","wizard_gems","","","","2019-08-14T06:49:10Z","2019-08-14T07:01:58Z","767427","147.125.37.58","2019-08-10","9fzhnxu5uzmnbuf","false","0893825296-exa-8845083689-mple","13810.910000000149","[93,73,24,78,71]","68","62.666666666666664","[""#6F9CA4"",""#005BA8"",""#DA7100"",""#FF4100"",""#38A600""]","[""grey"",""blue"",""orange"",""red"",""green""]","learning","[0.3333333333333333,0,0.3333333333333333,0,0.3333333333333333]"
"4545.330000109971","","","wizard-gem-trial","89","697038","0.0-89.0","wizard_gems","","","","2019-08-14T06:49:10Z","2019-08-14T07:01:58Z","767427","147.125.37.58","2019-08-10","9fzhnxu5uzmnbuf","false","0893825296-exa-8845083689-mple","6548.695000004955","[29,13,93,78,62]","61","61.33333333333333","[""#6F9CA4"",""#005BA8"",""#DA7100"",""#FF4100"",""#38A600""]","[""grey"",""blue"",""orange"",""red"",""green""]","learning","[0.3333333333333333,0,0.3333333333333333,0,0.3333333333333333]"
"6184.580000001006","","","wizard-gem-trial","90","705738","0.0-90.0","wizard_gems","","","","2019-08-14T06:49:10Z","2019-08-14T07:01:58Z","767427","147.125.37.58","2019-08-10","9fzhnxu5uzmnbuf","false","0893825296-exa-8845083689-mple","8189.820000086911","[83,69,85,90,17]","66","61.666666666666664","[""#6F9CA4"",""#005BA8"",""#DA7100"",""#FF4100"",""#38A600""]","[""grey"",""blue"",""orange"",""red"",""green""]","learning","[0.3333333333333333,0,0.3333333333333333,0,0.3333333333333333]"
"3055.3300000028685","","","wizard-gem-trial","91","711304","0.0-91.0","wizard_gems","","","","2019-08-14T06:49:10Z","2019-08-14T07:01:58Z","767427","147.125.37.58","2019-08-10","9fzhnxu5uzmnbuf","false","0893825296-exa-8845083689-mple","5055.969999986701","[33,50,66,20,63]","53","54","[""#6F9CA4"",""#005BA8"",""#DA7100"",""#FF4100"",""#38A600""]","[""grey"",""blue"",""orange"",""red"",""green""]","learning","[0.3333333333333333,0,0.3333333333333333,0,0.3333333333333333]"
"2222.234999993816","","","wizard-gem-trial","92","716038","0.0-92.0","wizard_gems","","","","2019-08-14T06:49:10Z","2019-08-14T07:01:58Z","767427","147.125.37.58","2019-08-10","9fzhnxu5uzmnbuf","false","0893825296-exa-8845083689-mple","4225.985000026412","[14,51,45,15,39]","31","32.666666666666664","[""#6F9CA4"",""#005BA8"",""#DA7100"",""#FF4100"",""#38A600""]","[""grey"",""blue"",""orange"",""red"",""green""]","learning","[0.3333333333333333,0,0.3333333333333333,0,0.3333333333333333]"
"2732.2799999965355","","","wizard-gem-trial","93","721282","0.0-93.0","wizard_gems","","","","2019-08-14T06:49:10Z","2019-08-14T07:01:58Z","767427","147.125.37.58","2019-08-10","9fzhnxu5uzmnbuf","false","0893825296-exa-8845083689-mple","4734.079999965616","[14,30,24,3,35]","21","24.333333333333332","[""#6F9CA4"",""#005BA8"",""#DA7100"",""#FF4100"",""#38A600""]","[""grey"",""blue"",""orange"",""red"",""green""]","learning","[0.3333333333333333,0,0.3333333333333333,0,0.3333333333333333]"
"2161.0700000310317","","","wizard-gem-trial","94","725961","0.0-94.0","wizard_gems","","","","2019-08-14T06:49:10Z","2019-08-14T07:01:58Z","767427","147.125.37.58","2019-08-10","9fzhnxu5uzmnbuf","false","0893825296-exa-8845083689-mple","4166.620000032708","[9,38,100,88,92]","67","67","[""#6F9CA4"",""#005BA8"",""#DA7100"",""#FF4100"",""#38A600""]","[""grey"",""blue"",""orange"",""red"",""green""]","learning","[0.3333333333333333,0,0.3333333333333333,0,0.3333333333333333]"
"4613.114999956451","","","wizard-gem-trial","95","733089","0.0-95.0","wizard_gems","","","","2019-08-14T06:49:10Z","2019-08-14T07:01:58Z","767427","147.125.37.58","2019-08-10","9fzhnxu5uzmnbuf","false","0893825296-exa-8845083689-mple","6616.1199999041855","[20,81,47,56,20]","32","29","[""#6F9CA4"",""#005BA8"",""#DA7100"",""#FF4100"",""#38A600""]","[""grey"",""blue"",""orange"",""red"",""green""]","learning","[0.3333333333333333,0,0.3333333333333333,0,0.3333333333333333]"
"2954.1550000431016","","","wizard-gem-trial","96","738556","0.0-96.0","wizard_gems","","","","2019-08-14T06:49:10Z","2019-08-14T07:01:58Z","767427","147.125.37.58","2019-08-10","9fzhnxu5uzmnbuf","false","0893825296-exa-8845083689-mple","4958.485000068322","[38,58,7,69,88]","42","44.33333333333333","[""#6F9CA4"",""#005BA8"",""#DA7100"",""#FF4100"",""#38A600""]","[""grey"",""blue"",""orange"",""red"",""green""]","learning","[0.3333333333333333,0,0.3333333333333333,0,0.3333333333333333]"
"9624.635000014678","","","wizard-gem-trial","97","750695","0.0-97.0","wizard_gems","","","","2019-08-14T06:49:10Z","2019-08-14T07:01:58Z","767427","147.125.37.58","2019-08-10","9fzhnxu5uzmnbuf","false","0893825296-exa-8845083689-mple","11628.329999977723","[63,10,4,58,76]","49","47.666666666666664","[""#6F9CA4"",""#005BA8"",""#DA7100"",""#FF4100"",""#38A600""]","[""grey"",""blue"",""orange"",""red"",""green""]","learning","[0.3333333333333333,0,0.3333333333333333,0,0.3333333333333333]"
"2688.12499998603","","","wizard-gem-trial","98","755894","0.0-98.0","wizard_gems","","","","2019-08-14T06:49:10Z","2019-08-14T07:01:58Z","767427","147.125.37.58","2019-08-10","9fzhnxu5uzmnbuf","false","0893825296-exa-8845083689-mple","4688.839999958873","[36,39,13,54,6]","20","18.333333333333332","[""#6F9CA4"",""#005BA8"",""#DA7100"",""#FF4100"",""#38A600""]","[""grey"",""blue"",""orange"",""red"",""green""]","learning","[0.3333333333333333,0,0.3333333333333333,0,0.3333333333333333]"
"2652.070000069216","","","wizard-gem-trial","99","761061","0.0-99.0","wizard_gems","","","","2019-08-14T06:49:10Z","2019-08-14T07:01:58Z","767427","147.125.37.58","2019-08-10","9fzhnxu5uzmnbuf","false","0893825296-exa-8845083689-mple","4655.710000079125","[10,90,61,40,51]","35","40.666666666666664","[""#6F9CA4"",""#005BA8"",""#DA7100"",""#FF4100"",""#38A600""]","[""grey"",""blue"",""orange"",""red"",""green""]","learning","[0.3333333333333333,0,0.3333333333333333,0,0.3333333333333333]"
"2959.8499999847263","","","wizard-gem-trial","100","766531","0.0-100.0","wizard_gems","","","","2019-08-14T06:49:10Z","2019-08-14T07:01:58Z","767427","147.125.37.58","2019-08-10","9fzhnxu5uzmnbuf","false","0893825296-exa-8845083689-mple","4963.454999960959","[33,31,89,94,85]","72","69","[""#6F9CA4"",""#005BA8"",""#DA7100"",""#FF4100"",""#38A600""]","[""grey"",""blue"",""orange"",""red"",""green""]","learning","[0.3333333333333333,0,0.3333333333333333,0,0.3333333333333333]"
